view_history,rt,trial_type,trial_index,time_elapsed,internal_node_id,subject_id,form,wave,session_id,session_restart_id,FULLSCREEN_SCREEN_WIDTH,FULLSCREEN_SCREEN_HEIGHT,width,height,webaudio,browser,browser_version,mobile,os,fullscreen,vsync_rate,webcam,microphone,trial_name,success,data_checkpoint,data_checkpoint_ind,response,question_order,custom_timer_ended_trial,interval_id,crt_1,crt_2,crt_3,crt_4,crt_5,crt_6,crt_7,stimulus,experiment_parameters,task_impossible_question,task_cognitive_reflection,task_leapfrog,task_admc_rc2,task_denominator_neglect_version_A,task_denominator_neglect_version_B,task_number_series,task_admc_a1,task_admc_dr,task_bayesian_update_easy,task_bayesian_update_hard,task_raven_matrix,task_time_series,response_choice,response_slider,slider_moved,pt_trial,block,trial,id,question_text,answer_1,answer_2,correct_answer,aig_version,correct,optionA_reward,optionB_reward,points_won,option_selected,curr_block_ind,pt_trial_prediction,slider_start,admc_id,admc_response,task_version,choice_type,left_lottery_display_type,right_lottery_display_type,left_lottery_type,right_lottery_type,left_lottery_gold_prop,right_lottery_gold_prop,left_lottery_total_coins,right_lottery_total_coins,left_lottery_gold_coins,right_lottery_gold_coins,left_lottery_silver_coins,right_lottery_silver_coins,selected_lottery,coin_drawn,ns_id,ns_response,unique_trial,unique_trial_draw_number,ball_split,left_box_majority_color,right_box_majority_color,selected_box_majority_color,current_draw,past_draws,version,score,list_id,y_axis_values,chart_height,func,direction,noise_condition,datapoints
"[{'page_index': 0, 'viewing_time': 6147}]",6147.0,instructions,3,6152,0.0-3.0,Mi6oc81FIZdzpX92BWed,33ff78,5,eZ2aNrdo5aeiJ3cyd7VAZp6Iog,LcHNenI1UTkYOzMRxEPiMjpfZT,1536.0,960.0,,,,,,,,,,,,,,,,,,,,,,,,,,,,,,,,,,,,,,,,,,,,,,,,,,,,,,,,,,,,,,,,,,,,,,,,,,,,,,,,,,,,,,,,,,,,,,,,,,
,,call-function,4,6153,0.0-4.0,Mi6oc81FIZdzpX92BWed,33ff78,5,eZ2aNrdo5aeiJ3cyd7VAZp6Iog,LcHNenI1UTkYOzMRxEPiMjpfZT,1536.0,960.0,,,,,,,,,,,,,,,,,,,,,,,,,,,,,,,,,,,,,,,,,,,,,,,,,,,,,,,,,,,,,,,,,,,,,,,,,,,,,,,,,,,,,,,,,,,,,,,,,,
,,browser-check,5,7155,0.0-5.0,Mi6oc81FIZdzpX92BWed,33ff78,5,eZ2aNrdo5aeiJ3cyd7VAZp6Iog,LcHNenI1UTkYOzMRxEPiMjpfZT,1536.0,960.0,1536.0,791.0,True,chrome,123.0.0,False,Windows 10,True,60.2,True,True,browser_check,,,,,,,,,,,,,,,,,,,,,,,,,,,,,,,,,,,,,,,,,,,,,,,,,,,,,,,,,,,,,,,,,,,,,,,,,,,,,,,,,,,,,,
,,fullscreen,6,10971,0.0-6.0,Mi6oc81FIZdzpX92BWed,33ff78,5,eZ2aNrdo5aeiJ3cyd7VAZp6Iog,LcHNenI1UTkYOzMRxEPiMjpfZT,1536.0,960.0,,,,,,,,,,,,fullscreen,True,,,,,,,,,,,,,,,,,,,,,,,,,,,,,,,,,,,,,,,,,,,,,,,,,,,,,,,,,,,,,,,,,,,,,,,,,,,,,,,,,,,,,
,,call-function,7,10974,0.0-7.0,Mi6oc81FIZdzpX92BWed,33ff78,5,eZ2aNrdo5aeiJ3cyd7VAZp6Iog,LcHNenI1UTkYOzMRxEPiMjpfZT,1536.0,960.0,,,,,,,,,,,,,,,,,,,,,,,,,,,,,,,,,,,,,,,,,,,,,,,,,,,,,,,,,,,,,,,,,,,,,,,,,,,,,,,,,,,,,,,,,,,,,,,,,,
,,html-keyboard-response,8,10975,0.0-8.0,Mi6oc81FIZdzpX92BWed,33ff78,5,eZ2aNrdo5aeiJ3cyd7VAZp6Iog,LcHNenI1UTkYOzMRxEPiMjpfZT,1536.0,960.0,,,,,,,,,,,,async_data_save,,experiment__welcome,1.0,,,,,,,,,,,,,,,,,,,,,,,,,,,,,,,,,,,,,,,,,,,,,,,,,,,,,,,,,,,,,,,,,,,,,,,,,,,,,,,,,,,
,,call-function,76,306621,0.0-11.0-1.0,Mi6oc81FIZdzpX92BWed,33ff78,5,eZ2aNrdo5aeiJ3cyd7VAZp6Iog,LcHNenI1UTkYOzMRxEPiMjpfZT,1536.0,960.0,,,,,,,,,,,,,,,,,,,,,,,,,,,,,,,,,,,,,,,,,,,,,,,,,,,,,,,,,,,,,,,,,,,,,,,,,,,,,,,,,,,,,,,,,,,,,,,,,,
,,call-function,77,306621,0.0-11.0-2.0,Mi6oc81FIZdzpX92BWed,33ff78,5,eZ2aNrdo5aeiJ3cyd7VAZp6Iog,LcHNenI1UTkYOzMRxEPiMjpfZT,1536.0,960.0,,,,,,,,,,,,,,,,,,,,,,,,,,,,,,,,,,,,,,,,,,,,,,,,,,,,,,,,,,,,,,,,,,,,,,,,,,,,,,,,,,,,,,,,,,,,,,,,,,
,80340.0,survey-multi-choice,78,386969,0.0-11.0-3.0,Mi6oc81FIZdzpX92BWed,33ff78,5,eZ2aNrdo5aeiJ3cyd7VAZp6Iog,LcHNenI1UTkYOzMRxEPiMjpfZT,1536.0,960.0,,,,,,,,,,,,cognitive_reflection_test_trial,,,,"{'crt_1': '10 cents', 'crt_2': '100 minutes', 'crt_3': '47 days', 'crt_4': '4 days', 'crt_5': '30 students', 'crt_6': '20 dollars', 'crt_7': 'has lost money.'}","[0, 1, 2, 3, 4, 5, 6]",False,68.0,10 cents,100 minutes,47 days,4 days,30 students,20 dollars,has lost money.,,,,,,,,,,,,,,,,,,,,,,,,,,,,,,,,,,,,,,,,,,,,,,,,,,,,,,,,,,,,,,,,,,,,,,,,
,,call-function,79,386977,0.0-11.0-4.0,Mi6oc81FIZdzpX92BWed,33ff78,5,eZ2aNrdo5aeiJ3cyd7VAZp6Iog,LcHNenI1UTkYOzMRxEPiMjpfZT,1536.0,960.0,,,,,,,,,,,,,,,,,,,,,,,,,,,,,,,,,,,,,,,,,,,,,,,,,,,,,,,,,,,,,,,,,,,,,,,,,,,,,,,,,,,,,,,,,,,,,,,,,,
,3005.0,html-button-response,80,389976,0.0-11.0-5.0,Mi6oc81FIZdzpX92BWed,33ff78,5,eZ2aNrdo5aeiJ3cyd7VAZp6Iog,LcHNenI1UTkYOzMRxEPiMjpfZT,1536.0,960.0,,,,,,,,,,,,feedback_Cognitive Reflection,,,,,,,,,,,,,,,"
                    <p class=""instructions-title"">Feedback?</p>
                    <p>If something went wrong during the last task or you think we can improve it, please leave any and all comments you have here.</p>
                    <div style=""margin-bottom: 3vh"">
                        <textarea id=""task_feedback"" style=""width: 50vw; height: 15vh;""></textarea>
                    </div>
                ",,,,,,,,,,,,,,,,,,,,,,,,,,,,,,,,,,,,,,,,,,,,,,,,,,,,,,,,,,,,,,,,,,,,,,,
,,call-function,81,389976,0.0-11.0-6.0,Mi6oc81FIZdzpX92BWed,33ff78,5,eZ2aNrdo5aeiJ3cyd7VAZp6Iog,LcHNenI1UTkYOzMRxEPiMjpfZT,1536.0,960.0,,,,,,,,,,,,,,,,,,,,,,,,,,,,,,,,,,,,,,,,,,,,,,,,,,,,,,,,,,,,,,,,,,,,,,,,,,,,,,,,,,,,,,,,,,,,,,,,,,
,,html-keyboard-response,82,389978,0.0-11.0-8.0,Mi6oc81FIZdzpX92BWed,33ff78,5,eZ2aNrdo5aeiJ3cyd7VAZp6Iog,LcHNenI1UTkYOzMRxEPiMjpfZT,1536.0,960.0,,,,,,,,,,,,async_data_save,,Cognitive Reflection__completed,3.0,,,,,,,,,,,,,,,,,,,,,,,,,,,,,,,,,,,,,,,,,,,,,,,,,,,,,,,,,,,,,,,,,,,,,,,,,,,,,,,,,,,
,,call-function,0,3,0.0-0.0,Mi6oc81FIZdzpX92BWed,33ff78,5,eZ2aNrdo5aeiJ3cyd7VAZp6Iog,QWp8uQvwfyhEwwNvtIShlrYLmZ,,,,,,,,,,,,,,,,,,,,,,,,,,,,,,,,,,,,,,,,,,,,,,,,,,,,,,,,,,,,,,,,,,,,,,,,,,,,,,,,,,,,,,,,,,,,,,,,,,,,
,,call-function,1,3,0.0-1.0,Mi6oc81FIZdzpX92BWed,33ff78,5,eZ2aNrdo5aeiJ3cyd7VAZp6Iog,QWp8uQvwfyhEwwNvtIShlrYLmZ,,,,,,,,,,,,,,session_parameters,,,,,,,,,,,,,,,,"{'INSTRUCTIONS_ONLY': False, 'IGNORE_VALIDATION': False, 'SKIP_INTRO_TRIALS': False, 'TEST_EXCLUSION_CRITERIA': False, 'SIMULATE': False, 'SIMULATE_TRIAL_DURATION': 250}","{'SHOW_TASK': True, 'TASK_ORDER_INDEX': 1, 'SHORT_VERSION': False, 'USE_ANCHOR_VERSION': False, 'TEST_TRIALS_N': 30, 'TEST_TRIALS_PER_BLOCK': 30, 'TEST_BLOCKS': 1, 'GK_FORMS': {'anchor': ['GK_86', 'GK_75', 'GK_90', 'GK_80', 'GK_70', 'GK_79', 'GK_64', 'GK_72', 'GK_63', 'GK_42', 'GK_61', 'GK_69', 'GK_36', 'GK_53', 'GK_14', 'GK_55', 'GK_6', 'GK_84', 'GK_23', 'GK_22', 'GK_2', 'GK_3', 'GK_21', 'GK_4'], 'aig_A': ['GK_89', 'GK_91', 'GK_94', 'GK_85', 'GK_49', 'GK_20', 'GK_74', 'GK_38', 'GK_25', 'GK_54', 'GK_43', 'GK_76', 'GK_39', 'GK_32', 'GK_71', 'GK_35', 'GK_28', 'GK_77', 'GK_48', 'GK_31', 'GK_27', 'GK_7', 'GK_17', 'GK_11'], 'aig_B': ['GK_87', 'GK_82', 'GK_93', 'GK_83', 'GK_26', 'GK_62', 'GK_88', 'GK_66', 'GK_44', 'GK_29', 'GK_81', 'GK_57', 'GK_58', 'GK_41', 'GK_47', 'GK_37', 'GK_13', 'GK_60', 'GK_24', 'GK_12', 'GK_9', 'GK_16', 'GK_15', 'GK_33']}, 'IQ_FORMS': {'anchor': ['IQ_1', 'IQ_2', 'IQ_3', 'IQ_4', 'IQ_5', 'IQ_6'], 'aig_A': ['IQ_7', 'IQ_8', 'IQ_9', 'IQ_10', 'IQ_11', 'IQ_12'], 'aig_B': ['IQ_13', 'IQ_14', 'IQ_15', 'IQ_16', 'IQ_17', 'IQ_18']}, 'GENERAL_KNOWLEDGE_QUESTIONS': [{'id': 'GK_1', 'question_text': 'Carbon dioxide produced by burning fossil fuels contributes to global warming.', 'answer_1': 'True', 'answer_2': 'False', 'correct_answer': '1'}, {'id': 'GK_2', 'question_text': 'The radius of the Earth is approximately...', 'answer_1': '4000 miles', 'answer_2': '200 miles', 'correct_answer': '1'}, {'id': 'GK_3', 'question_text': 'Apples are classified as:', 'answer_1': 'Fruits', 'answer_2': 'Vegetables', 'correct_answer': '1'}, {'id': 'GK_4', 'question_text': 'Which comes closest in meaning to the following word? Easy', 'answer_1': 'Complex', 'answer_2': 'Simple', 'correct_answer': '2'}, {'id': 'GK_5', 'question_text': '5 + 5 + 5 = ', 'answer_1': '15', 'answer_2': '50', 'correct_answer': '1'}, {'id': 'GK_6', 'question_text': 'Which of the following is found in plant cells but not animal cells?', 'answer_1': 'Chloroplasts', 'answer_2': 'Ribosome', 'correct_answer': '1'}, {'id': 'GK_7', 'question_text': 'How many points is a touchdown in American Football?', 'answer_1': '6', 'answer_2': '8', 'correct_answer': '1'}, {'id': 'GK_8', 'question_text': 'A bat-and-ball game played between two teams of nine players each who take turns batting and fielding is', 'answer_1': 'Tennis', 'answer_2': 'Baseball', 'correct_answer': '2'}, {'id': 'GK_9', 'question_text': 'In which continent does Germany lie?', 'answer_1': 'Asia', 'answer_2': 'Europe', 'correct_answer': '2'}, {'id': 'GK_10', 'question_text': 'A conical mountain having a crater or vent through which lava and gases erupt is called:', 'answer_1': 'Volcano', 'answer_2': 'Electric storm', 'correct_answer': '1'}, {'id': 'GK_11', 'question_text': 'The world population is approximately:', 'answer_1': '7 million', 'answer_2': '7 billion', 'correct_answer': '2'}, {'id': 'GK_12', 'question_text': 'Psychology is used to study the life cycle of animals and plants', 'answer_1': 'True', 'answer_2': 'False', 'correct_answer': '2'}, {'id': 'GK_13', 'question_text': 'Melting point is the temperature at which solids:', 'answer_1': 'Melt in liquids', 'answer_2': 'Evaporate into gases', 'correct_answer': '1'}, {'id': 'GK_14', 'question_text': ""Methane, Carbon Dioxide and Water vapor in the atmosphere are all good at trapping heat from the Earth's surface"", 'answer_1': 'True', 'answer_2': 'False', 'correct_answer': '1'}, {'id': 'GK_15', 'question_text': 'Which comes closest in meaning to the following word: Quick', 'answer_1': 'Fast', 'answer_2': 'Slow', 'correct_answer': '1'}, {'id': 'GK_16', 'question_text': 'Which happened earlier in history?', 'answer_1': 'World War 1', 'answer_2': 'Construction of the Egyptian pyramids', 'correct_answer': '2'}, {'id': 'GK_17', 'question_text': 'Which happened earlier in history?', 'answer_1': 'Abraham Lincoln became President of USA', 'answer_2': 'George Bush became President of USA', 'correct_answer': '1'}, {'id': 'GK_18', 'question_text': 'The number of stars in the Milky Way is:', 'answer_1': 'Greater than 100 billion ', 'answer_2': 'Less than 1 billion', 'correct_answer': '1'}, {'id': 'GK_19', 'question_text': 'Which is Earths largest continent by surface size?', 'answer_1': 'North America', 'answer_2': 'Asia', 'correct_answer': '2'}, {'id': 'GK_20', 'question_text': 'Moderate earthquakes (5.0 - 5.9 on the Richter Scale) happen approximately twice a day.', 'answer_1': 'True', 'answer_2': 'False', 'correct_answer': '1'}, {'id': 'GK_21', 'question_text': 'The number of weeks in a year is approximately:', 'answer_1': '500', 'answer_2': '52', 'correct_answer': '2'}, {'id': 'GK_22', 'question_text': 'China has over 1 billion mobile cellular connections', 'answer_1': 'True', 'answer_2': 'False', 'correct_answer': '1'}, {'id': 'GK_23', 'question_text': 'Not all metals are attracted to magnets', 'answer_1': 'True', 'answer_2': 'False', 'correct_answer': '1'}, {'id': 'GK_24', 'question_text': 'Which comes closest in meaning to the following word: Antediluvian', 'answer_1': 'Ancient', 'answer_2': 'Liberal', 'correct_answer': '1'}, {'id': 'GK_25', 'question_text': 'Given: Some hair is red. No red is green. Logical conclusion: Anything green cannot be hair.', 'answer_1': 'True', 'answer_2': 'False', 'correct_answer': '2'}, {'id': 'GK_26', 'question_text': 'Given: Any glass requires cups to exist but cups can exist without glass. One cup can support only one glass. Logical conclusion: There are more cups existing than glasses.', 'answer_1': 'True', 'answer_2': 'False', 'correct_answer': '1'}, {'id': 'GK_27', 'question_text': 'Budapest is the capital of which county?', 'answer_1': 'Hungary', 'answer_2': 'Austria', 'correct_answer': '1'}, {'id': 'GK_28', 'question_text': 'Greenhouse effect refers to:', 'answer_1': 'Gases in the atmosphere that trap heat', 'answer_2': ""Impact to the Earth's ozone layer"", 'correct_answer': '1'}, {'id': 'GK_29', 'question_text': 'Who has a higher NBA career playoff points per game?', 'answer_1': 'Kobe Bryant', 'answer_2': 'Michael Jordan', 'correct_answer': '2'}, {'id': 'GK_30', 'question_text': '4 is a prime number.', 'answer_1': 'True', 'answer_2': 'False', 'correct_answer': '2'}, {'id': 'GK_31', 'question_text': 'Stretchiness, or the ability of an object or material to resume its normal shape after being stretched or compressed is?', 'answer_1': 'Electricity', 'answer_2': 'Elasticity', 'correct_answer': '2'}, {'id': 'GK_32', 'question_text': 'Which element is found in greater quantity in the Sun?', 'answer_1': 'Hydrogen', 'answer_2': 'Helium', 'correct_answer': '1'}, {'id': 'GK_33', 'question_text': 'Which planet in our solar system is closest to the Sun?', 'answer_1': 'Pluto', 'answer_2': 'Mercury', 'correct_answer': '2'}, {'id': 'GK_34', 'question_text': 'Scientists estimate global sea levels have increased by approximately how much in the last 100 odd years', 'answer_1': 'Less than 1 foot', 'answer_2': '3-4 feet', 'correct_answer': '1'}, {'id': 'GK_35', 'question_text': 'Global warming is a humanitarian initiative to slow down freezing in the North Pole.', 'answer_1': 'True', 'answer_2': 'False', 'correct_answer': '2'}, {'id': 'GK_36', 'question_text': 'Ocean currents carry heat from the equator toward the north and south poles.', 'answer_1': 'True', 'answer_2': 'False', 'correct_answer': '1'}, {'id': 'GK_37', 'question_text': 'Which champion boxer had the birth name Cassius Clay?', 'answer_1': 'Mike Tyson', 'answer_2': 'Muhammed Ali', 'correct_answer': '2'}, {'id': 'GK_38', 'question_text': 'Phnom penh is the capital of which country?', 'answer_1': 'Vietnam', 'answer_2': 'Cambodia', 'correct_answer': '2'}, {'id': 'GK_39', 'question_text': ""The Pacific Ocean's area is larger than all the earth's masses combined."", 'answer_1': 'True', 'answer_2': 'False', 'correct_answer': '1'}, {'id': 'GK_40', 'question_text': 'Which comes closest in meaning to the following word? Ersatz', 'answer_1': 'Fake', 'answer_2': 'Elite', 'correct_answer': '1'}, {'id': 'GK_41', 'question_text': 'Which comes closest in meaning to the following word? Zephyr', 'answer_1': 'Breeze', 'answer_2': 'Tide', 'correct_answer': '1'}, {'id': 'GK_42', 'question_text': 'Which happened earlier in history?', 'answer_1': 'Chinese issue the first paper money', 'answer_2': 'European sailors begin to use the magnetic compass', 'correct_answer': '1'}, {'id': 'GK_43', 'question_text': 'Which happened earlier in history?', 'answer_1': 'Alexander Graham Bell patents the telephone', 'answer_2': ""Charles Darwin publishes 'The Origin of Species'"", 'correct_answer': '2'}, {'id': 'GK_44', 'question_text': 'Which happened earlier in history?', 'answer_1': 'Julius Caesar getting assassinated', 'answer_2': 'Alexander the Great conquering Egypt', 'correct_answer': '2'}, {'id': 'GK_45', 'question_text': 'If it takes 5 machines 5 minutes to make 5 widgets, how long would it take 100 machines to make 100 widgets? _____ minutes', 'answer_1': '5 minutes', 'answer_2': '100 minutes', 'correct_answer': '1'}, {'id': 'GK_46', 'question_text': 'In a lake, there is a patch of lily pads. Every day, the patch doubles in size. If it takes 48 days for the patch to cover the entire lake, how long would it take for the patch to cover half of the lake? _____ days', 'answer_1': '24 days', 'answer_2': '47 days', 'correct_answer': '2'}, {'id': 'GK_47', 'question_text': 'Radioactive milk cannot be made safe by boiling it', 'answer_1': 'True', 'answer_2': 'False', 'correct_answer': '1'}, {'id': 'GK_48', 'question_text': 'All radioactivity is man-made.', 'answer_1': 'True', 'answer_2': 'False', 'correct_answer': '2'}, {'id': 'GK_49', 'question_text': 'What is the length of an Olympic swimming pool?', 'answer_1': '80 meters', 'answer_2': '50 meters', 'correct_answer': '2'}, {'id': 'GK_50', 'question_text': 'The highest natural surface temperature recorded on Earth has been:', 'answer_1': 'less than 55?øC', 'answer_2': 'greater than 55?øC', 'correct_answer': '2'}, {'id': 'GK_51', 'question_text': 'Global temperatures have been rising by about 10 degress every year over the last 10 years', 'answer_1': 'True', 'answer_2': 'False', 'correct_answer': '2'}, {'id': 'GK_52', 'question_text': 'There are approximately how many airports in the World?', 'answer_1': '10000', 'answer_2': '40000', 'correct_answer': '2'}, {'id': 'GK_53', 'question_text': 'The top 10 car manufacturing countries produced approximately how many new cars in 2014?', 'answer_1': '50 milion', 'answer_2': '10 million', 'correct_answer': '1'}, {'id': 'GK_54', 'question_text': 'What was the beta (early) version of the Internet called?', 'answer_1': 'ARPAnet', 'answer_2': 'Intranet', 'correct_answer': '1'}, {'id': 'GK_55', 'question_text': 'Autism has become an epidemic.', 'answer_1': 'True', 'answer_2': 'False', 'correct_answer': '2'}, {'id': 'GK_56', 'question_text': 'Lasers work by focusing sound waves.', 'answer_1': 'True', 'answer_2': 'False', 'correct_answer': '2'}, {'id': 'GK_57', 'question_text': 'Positive charges cannot flow in any conductor.', 'answer_1': 'True', 'answer_2': 'False', 'correct_answer': '2'}, {'id': 'GK_58', 'question_text': 'What light-sensitive cells in the eye detect colors?', 'answer_1': 'Cones', 'answer_2': 'Rods', 'correct_answer': '1'}, {'id': 'GK_59', 'question_text': 'Who was the first human in space?', 'answer_1': 'Neil Armstrong', 'answer_2': 'Yuri Gagarin', 'correct_answer': '2'}, {'id': 'GK_60', 'question_text': 'Which is the only country to qualify for every FIFA World Cup (soccer) since inception in 1930?', 'answer_1': 'Argentina', 'answer_2': 'Brazil', 'correct_answer': '2'}, {'id': 'GK_61', 'question_text': 'Which comes closest in meaning to the following word? Intransigent', 'answer_1': 'Transitory', 'answer_2': 'Inflexible', 'correct_answer': '2'}, {'id': 'GK_62', 'question_text': 'Which comes closest in meaning to the following word? Soporific', 'answer_1': ""Pertaining to one's self"", 'answer_2': 'Sleep inducing', 'correct_answer': '2'}, {'id': 'GK_63', 'question_text': 'Bats are not blind.', 'answer_1': 'True', 'answer_2': 'False', 'correct_answer': '1'}, {'id': 'GK_64', 'question_text': 'Human children have more bones than adults.', 'answer_1': 'True', 'answer_2': 'False', 'correct_answer': '1'}, {'id': 'GK_65', 'question_text': 'The land area of Canada is approximately how many times the land area of India?', 'answer_1': 'Half', 'answer_2': '3 times', 'correct_answer': '2'}, {'id': 'GK_66', 'question_text': 'The number of tourist arrivals per year in China (as of 2018) were approximately:', 'answer_1': '141 million', 'answer_2': '31 million', 'correct_answer': '1'}, {'id': 'GK_67', 'question_text': 'People use approximately only 10% of their brains', 'answer_1': 'True', 'answer_2': 'False', 'correct_answer': '2'}, {'id': 'GK_68', 'question_text': 'People with schizophrenia have multiple personalities.', 'answer_1': 'True', 'answer_2': 'False', 'correct_answer': '2'}, {'id': 'GK_69', 'question_text': 'Which is the smallest independent country?', 'answer_1': 'Monaco', 'answer_2': 'Vatican City', 'correct_answer': '2'}, {'id': 'GK_70', 'question_text': 'A man bought a car for $10,000. He sold the car once the price fell by 17%, and invested the money so that he then got back $10,000. His profit on the invested amount is approximately:', 'answer_1': '0.17', 'answer_2': '0.2', 'correct_answer': '2'}, {'id': 'GK_71', 'question_text': 'Ocean acidification is caused by:', 'answer_1': 'Chemical spills in the ocean', 'answer_2': 'Absorption of carbon dioxide by the ocean', 'correct_answer': '2'}, {'id': 'GK_72', 'question_text': 'The total number of cinema visits in USA in 2018 were approximately how much?', 'answer_1': '130 million', 'answer_2': '1.3 billion', 'correct_answer': '2'}, {'id': 'GK_73', 'question_text': 'ESP (extra sensory perception) is not a scientifically well-established phenomenon', 'answer_1': 'True', 'answer_2': 'False', 'correct_answer': '1'}, {'id': 'GK_74', 'question_text': 'It is possible for water to exist in liquid form below 0 degrees C (32 degrees F)', 'answer_1': 'True', 'answer_2': 'False', 'correct_answer': '1'}, {'id': 'GK_75', 'question_text': ""In 2006, the status of the then planet Pluto was reduced to 'dwarf Planet' so that it was no longer officially the ninth planet in our Solar system. The reason for this was because its' gravitational force was not enough to"", 'answer_1': 'Maintain its regular orbit around the sun', 'answer_2': 'Clear its neighbouring region of planetesimals and asteroids etc.', 'correct_answer': '2'}, {'id': 'GK_76', 'question_text': 'Which two sports both have 11 members of each team playing on the field (under normal circumstances)?', 'answer_1': 'Field hockey and American Football', 'answer_2': 'Ice hockey & Soccer', 'correct_answer': '1'}, {'id': 'GK_77', 'question_text': 'Which happened earlier in history?', 'answer_1': 'Genghis Khan leads the Mongol army', 'answer_2': 'Oxford University is founded in England', 'correct_answer': '2'}, {'id': 'GK_78', 'question_text': 'A bat and a ball cost $1.10 in total. The bat costs $1.00 more than the ball. How much does the ball cost? _____ cents', 'answer_1': '10 cents', 'answer_2': '5 cents', 'correct_answer': '2'}, {'id': 'GK_79', 'question_text': 'Which one of the below is not a correct possible solution for x. | x - 9 | <  10.', 'answer_1': '-4', 'answer_2': '4', 'correct_answer': '1'}, {'id': 'GK_80', 'question_text': 'Most diamonds are not formed from coal.', 'answer_1': 'True', 'answer_2': 'False', 'correct_answer': '1'}, {'id': 'GK_81', 'question_text': 'If you are standing on the Equator, your approximate rotational speed is:', 'answer_1': 'Less than 1,000 km/h', 'answer_2': 'Greater than 1000 km/h', 'correct_answer': '2'}, {'id': 'GK_82', 'question_text': 'Plants use oxygen.', 'answer_1': 'True', 'answer_2': 'False', 'correct_answer': '1'}, {'id': 'GK_83', 'question_text': ""Jupiter's largest moon Ganymede is smaller (in diameter) than the planet Mercury."", 'answer_1': 'True', 'answer_2': 'False', 'correct_answer': '2'}, {'id': 'GK_84', 'question_text': 'How many gold medals did Michael Phelps win at the Beijing Olympics?', 'answer_1': '4', 'answer_2': '8', 'correct_answer': '2'}, {'id': 'GK_85', 'question_text': 'Most psychiatric therapies are based on Freud.', 'answer_1': 'True', 'answer_2': 'False', 'correct_answer': '2'}, {'id': 'GK_86', 'question_text': 'The velocity of a radio wave and a visible light wave in a vacuum are the same.', 'answer_1': 'True', 'answer_2': 'False', 'correct_answer': '1'}, {'id': 'GK_87', 'question_text': 'House flies have an average life span of less than 2 days.', 'answer_1': 'True', 'answer_2': 'False', 'correct_answer': '2'}, {'id': 'GK_88', 'question_text': 'People with amnesia forget all details of their earlier life.', 'answer_1': 'True', 'answer_2': 'False', 'correct_answer': '2'}, {'id': 'GK_89', 'question_text': 'Humans have evolved from monkeys.', 'answer_1': 'True', 'answer_2': 'False', 'correct_answer': '2'}, {'id': 'GK_90', 'question_text': 'The reason we experience seasons is because the distance between the earth and sun changes.', 'answer_1': 'True', 'answer_2': 'False', 'correct_answer': '2'}, {'id': 'GK_91', 'question_text': 'A ball made of solid steel will not float on water. However, when steel is used to make a boat it floats because the steel is made less dense.', 'answer_1': 'True', 'answer_2': 'False', 'correct_answer': '2'}, {'id': 'GK_92', 'question_text': 'Which happened earlier in history? ', 'answer_1': 'Sputnik I becomes the first man-made satellite', 'answer_2': 'Nautilus,  the first nuclear powered submarine,  is launched', 'correct_answer': '2'}, {'id': 'GK_93', 'question_text': 'Which country remained neutral throughout World War II?', 'answer_1': 'Turkey', 'answer_2': 'Afghanistan', 'correct_answer': '2'}, {'id': 'GK_94', 'question_text': 'If A is neccessary for B to occur and C is sufficient for B to occur, then it follows that if C has occured, it implies that A has also occured.', 'answer_1': 'True', 'answer_2': 'False', 'correct_answer': '1'}], 'IMPOSSIBLE_QUESTIONS': [{'id': 'IQ_1', 'question_text': 'When did the battle of Kavkav take place?', 'answer_1': 'Before 1647', 'answer_2': 'After 1647', 'correct_answer': '3'}, {'id': 'IQ_2', 'question_text': 'How many sides does a Detseroid have?', 'answer_1': 'More than 20', 'answer_2': 'Less than 20', 'correct_answer': '3'}, {'id': 'IQ_3', 'question_text': 'What is the population of Synomle?', 'answer_1': 'More than 10,000', 'answer_2': 'Less than 10,000', 'correct_answer': '3'}, {'id': 'IQ_4', 'question_text': ""What is the most prominent symptom of Seradot's disease?"", 'answer_1': 'A fever', 'answer_2': 'A rash', 'correct_answer': '3'}, {'id': 'IQ_5', 'question_text': 'What is the Parlichev method?', 'answer_1': 'A way of extracting minerals from soil', 'answer_2': 'A way of determining the distance to a star', 'correct_answer': '3'}, {'id': 'IQ_6', 'question_text': 'Resistance Configuration Theory is a psychological theory that explains:', 'answer_1': 'How people avoid blame and why they do not recognize when something is their fault', 'answer_2': 'Why certain people do not try new experiences', 'correct_answer': '3'}, {'id': 'IQ_7', 'question_text': 'When did the Laikrev Uprising occur?', 'answer_1': 'During the Renaissance', 'answer_2': 'During the Industrial Revolution', 'correct_answer': '3'}, {'id': 'IQ_8', 'question_text': 'What is the nutritional value of a Golgrest Fruit?', 'answer_1': 'High in Protein', 'answer_2': 'Low in Carbohydrates', 'correct_answer': '3'}, {'id': 'IQ_9', 'question_text': 'What is the speed of a Blargan Horse?', 'answer_1': 'Faster than a Cheetah', 'answer_2': 'Slower than a Snail', 'correct_answer': '3'}, {'id': 'IQ_10', 'question_text': ""What is the cure for Zolbrod's syndrome?"", 'answer_1': 'Immunotherapy', 'answer_2': 'Radiation Therapy', 'correct_answer': '3'}, {'id': 'IQ_11', 'question_text': 'What does the Veklin Procedure involve?', 'answer_1': 'A sequence of precise surgical incisions', 'answer_2': 'A complex mathematical equation', 'correct_answer': '3'}, {'id': 'IQ_12', 'question_text': 'How does Binoxelation Impact Theory explain the growth of crystals?', 'answer_1': 'Through thermodynamics', 'answer_2': 'Through quantum mechanics', 'correct_answer': '3'}, {'id': 'IQ_13', 'question_text': 'What are the ingredients of a traditional Zibrune stew?', 'answer_1': 'Magical herbs and spices', 'answer_2': 'Alien sea creatures', 'correct_answer': '3'}, {'id': 'IQ_14', 'question_text': ""What's the main purpose of a Tantrigon device?"", 'answer_1': 'To communicate with other dimensions', 'answer_2': 'To teleport through space', 'correct_answer': '3'}, {'id': 'IQ_15', 'question_text': ""What's the habitat of a Rojixon bird?"", 'answer_1': 'Deserts', 'answer_2': 'Tropical rainforests', 'correct_answer': '3'}, {'id': 'IQ_16', 'question_text': ""What's the side effect of Grilpax's disease?"", 'answer_1': 'Change in hair color', 'answer_2': 'Ability to sing beautifully', 'correct_answer': '3'}, {'id': 'IQ_17', 'question_text': 'What is the Kraghold method used for?', 'answer_1': 'Predicting stock market trends', 'answer_2': 'Improving memory recall', 'correct_answer': '3'}, {'id': 'IQ_18', 'question_text': 'The Diflective Assumption Theory helps us understand:', 'answer_1': 'How memories are stored in the brain', 'answer_2': 'How emotions impact our decision making', 'correct_answer': '3'}]}","{'SHOW_TASK': True, 'TASK_ORDER_INDEX': 2, 'DATA': [{'id': 'crt_1', 'prompt': '<b>Q1</b>. A bat and a ball cost $1.10 in total. The bat costs $1.00 more than the ball. How much does the ball cost?', 'options': ['5 cents', '10 cents', '9 cents', '1 cent']}, {'id': 'crt_2', 'prompt': '<b>Q2</b>. If it takes 5 machines 5 minutes to make 5 widgets, how long would it take 100 machines to make 100 widgets?', 'options': ['5 minutes', '100 minutes', '20 minutes', '500 minutes']}, {'id': 'crt_3', 'prompt': '<b>Q3</b>. In a lake, there is a patch of lily pads. Every day, the patch doubles in size. If it takes 48 days for the patch to cover the entire lake, how long would it take for the patch to cover half of the lake?', 'options': ['47 days', '24 days', '12 days', '36 days']}, {'id': 'crt_4', 'prompt': '<b>Q4</b>. If John can drink one barrel of water in 6 days, and Mary can drink one barrel of water in 12 days, how long would it take them to drink one barrel of water together?', 'options': ['4 days', '9 days', '12 days', '3 days']}, {'id': 'crt_5', 'prompt': '<b>Q5</b>. Jerry received both the 15th highest and the 15th lowest mark in the class. How many students are in the class?', 'options': ['29 students', '30 students', '1 student', '15 students']}, {'id': 'crt_6', 'prompt': '<b>Q6</b>. A man buys a pig for $60, sells it for $70, buys it back for $80, and sells it finally for $90. How much has he made?', 'options': ['20 dollars', '10 dollars', '0 dollars', '30 dollars']}, {'id': 'crt_7', 'prompt': '<b>Q7</b>. Simon decided to invest $8,000 in the stock market one day early in 2008. Six months after he invested, on July 17, the stocks he had purchased were down 50%. Fortunately for Simon, from July 17 to October 17, the stocks he had purchased went up 75%. At this point, Simon:', 'options': ['has lost money.', 'is ahead of where he began.', 'has broken even in the stock market.', 'it cannot be determined.']}]}","{'SHOW_TASK': True, 'TASK_ORDER_INDEX': 3, 'SHORT_VERSION': False, 'USE_ANCHOR_VERSION': True, 'VOLATILITY': 0.125, 'TRIAL_TIME_LIMIT': 1500, 'POINTS_COUNTER': 0, 'ANCHOR_FORM_REWARDS': [{'optionA': 10, 'optionB': 20}, {'optionA': 10, 'optionB': 20}, {'optionA': 10, 'optionB': 20}, {'optionA': 10, 'optionB': 20}, {'optionA': 10, 'optionB': 20}, {'optionA': 10, 'optionB': 20}, {'optionA': 10, 'optionB': 20}, {'optionA': 30, 'optionB': 20}, {'optionA': 30, 'optionB': 20}, {'optionA': 30, 'optionB': 20}, {'optionA': 30, 'optionB': 20}, {'optionA': 30, 'optionB': 20}, {'optionA': 30, 'optionB': 40}, {'optionA': 30, 'optionB': 40}, {'optionA': 30, 'optionB': 40}, {'optionA': 30, 'optionB': 40}, {'optionA': 50, 'optionB': 40}, {'optionA': 50, 'optionB': 40}, {'optionA': 50, 'optionB': 40}, {'optionA': 50, 'optionB': 40}, {'optionA': 50, 'optionB': 40}, {'optionA': 50, 'optionB': 40}, {'optionA': 50, 'optionB': 40}, {'optionA': 50, 'optionB': 40}, {'optionA': 50, 'optionB': 40}, {'optionA': 50, 'optionB': 40}, {'optionA': 50, 'optionB': 40}, {'optionA': 50, 'optionB': 60}, {'optionA': 50, 'optionB': 60}, {'optionA': 50, 'optionB': 60}, {'optionA': 50, 'optionB': 60}, {'optionA': 50, 'optionB': 60}, {'optionA': 50, 'optionB': 60}, {'optionA': 50, 'optionB': 60}, {'optionA': 50, 'optionB': 60}, {'optionA': 70, 'optionB': 60}, {'optionA': 70, 'optionB': 60}, {'optionA': 70, 'optionB': 60}, {'optionA': 70, 'optionB': 60}, {'optionA': 70, 'optionB': 60}, {'optionA': 70, 'optionB': 60}, {'optionA': 70, 'optionB': 60}, {'optionA': 70, 'optionB': 60}, {'optionA': 70, 'optionB': 60}, {'optionA': 70, 'optionB': 60}, {'optionA': 70, 'optionB': 60}, {'optionA': 70, 'optionB': 60}, {'optionA': 70, 'optionB': 60}, {'optionA': 70, 'optionB': 60}, {'optionA': 70, 'optionB': 60}, {'optionA': 70, 'optionB': 60}, {'optionA': 70, 'optionB': 60}, {'optionA': 70, 'optionB': 60}, {'optionA': 70, 'optionB': 60}, {'optionA': 70, 'optionB': 80}, {'optionA': 70, 'optionB': 80}, {'optionA': 70, 'optionB': 80}, {'optionA': 90, 'optionB': 80}, {'optionA': 90, 'optionB': 80}, {'optionA': 90, 'optionB': 80}, {'optionA': 90, 'optionB': 80}, {'optionA': 90, 'optionB': 80}, {'optionA': 90, 'optionB': 80}, {'optionA': 90, 'optionB': 80}, {'optionA': 90, 'optionB': 80}, {'optionA': 90, 'optionB': 100}, {'optionA': 90, 'optionB': 100}, {'optionA': 90, 'optionB': 100}, {'optionA': 90, 'optionB': 100}, {'optionA': 90, 'optionB': 100}, {'optionA': 90, 'optionB': 100}, {'optionA': 90, 'optionB': 100}, {'optionA': 90, 'optionB': 100}, {'optionA': 110, 'optionB': 100}, {'optionA': 110, 'optionB': 120}, {'optionA': 130, 'optionB': 120}, {'optionA': 130, 'optionB': 120}, {'optionA': 130, 'optionB': 120}, {'optionA': 130, 'optionB': 120}, {'optionA': 130, 'optionB': 120}, {'optionA': 130, 'optionB': 120}, {'optionA': 130, 'optionB': 120}, {'optionA': 130, 'optionB': 140}, {'optionA': 130, 'optionB': 140}, {'optionA': 150, 'optionB': 140}, {'optionA': 150, 'optionB': 140}, {'optionA': 150, 'optionB': 140}, {'optionA': 150, 'optionB': 140}, {'optionA': 150, 'optionB': 140}, {'optionA': 150, 'optionB': 140}, {'optionA': 150, 'optionB': 140}, {'optionA': 150, 'optionB': 140}, {'optionA': 150, 'optionB': 140}, {'optionA': 150, 'optionB': 140}, {'optionA': 150, 'optionB': 140}, {'optionA': 150, 'optionB': 160}, {'optionA': 150, 'optionB': 160}, {'optionA': 150, 'optionB': 160}, {'optionA': 150, 'optionB': 160}, {'optionA': 150, 'optionB': 160}, {'optionA': 150, 'optionB': 160}, {'optionA': 170, 'optionB': 160}, {'optionA': 170, 'optionB': 160}, {'optionA': 170, 'optionB': 160}, {'optionA': 170, 'optionB': 160}, {'optionA': 170, 'optionB': 160}, {'optionA': 170, 'optionB': 180}, {'optionA': 170, 'optionB': 180}, {'optionA': 170, 'optionB': 180}, {'optionA': 190, 'optionB': 180}, {'optionA': 190, 'optionB': 200}, {'optionA': 190, 'optionB': 200}, {'optionA': 190, 'optionB': 200}, {'optionA': 190, 'optionB': 200}, {'optionA': 210, 'optionB': 200}, {'optionA': 210, 'optionB': 200}, {'optionA': 210, 'optionB': 200}, {'optionA': 210, 'optionB': 200}, {'optionA': 210, 'optionB': 200}, {'optionA': 210, 'optionB': 200}, {'optionA': 210, 'optionB': 220}, {'optionA': 210, 'optionB': 220}, {'optionA': 210, 'optionB': 220}, {'optionA': 210, 'optionB': 220}, {'optionA': 210, 'optionB': 220}, {'optionA': 210, 'optionB': 220}, {'optionA': 210, 'optionB': 220}, {'optionA': 210, 'optionB': 220}, {'optionA': 210, 'optionB': 220}, {'optionA': 210, 'optionB': 220}, {'optionA': 210, 'optionB': 220}, {'optionA': 210, 'optionB': 220}, {'optionA': 210, 'optionB': 220}, {'optionA': 210, 'optionB': 220}, {'optionA': 210, 'optionB': 220}, {'optionA': 210, 'optionB': 220}, {'optionA': 210, 'optionB': 220}, {'optionA': 210, 'optionB': 220}, {'optionA': 210, 'optionB': 220}, {'optionA': 210, 'optionB': 220}, {'optionA': 210, 'optionB': 220}, {'optionA': 230, 'optionB': 220}, {'optionA': 230, 'optionB': 240}, {'optionA': 230, 'optionB': 240}, {'optionA': 230, 'optionB': 240}, {'optionA': 230, 'optionB': 240}, {'optionA': 230, 'optionB': 240}, {'optionA': 230, 'optionB': 240}, {'optionA': 230, 'optionB': 240}, {'optionA': 230, 'optionB': 240}, {'optionA': 250, 'optionB': 240}, {'optionA': 250, 'optionB': 240}, {'optionA': 250, 'optionB': 240}, {'optionA': 250, 'optionB': 240}, {'optionA': 250, 'optionB': 240}, {'optionA': 250, 'optionB': 240}, {'optionA': 250, 'optionB': 240}, {'optionA': 250, 'optionB': 240}, {'optionA': 250, 'optionB': 240}, {'optionA': 250, 'optionB': 240}, {'optionA': 250, 'optionB': 240}, {'optionA': 250, 'optionB': 240}, {'optionA': 250, 'optionB': 240}, {'optionA': 250, 'optionB': 240}, {'optionA': 250, 'optionB': 240}, {'optionA': 250, 'optionB': 240}, {'optionA': 250, 'optionB': 240}, {'optionA': 250, 'optionB': 240}, {'optionA': 250, 'optionB': 240}, {'optionA': 250, 'optionB': 260}, {'optionA': 250, 'optionB': 260}, {'optionA': 250, 'optionB': 260}, {'optionA': 270, 'optionB': 260}, {'optionA': 270, 'optionB': 260}, {'optionA': 270, 'optionB': 260}, {'optionA': 270, 'optionB': 260}, {'optionA': 270, 'optionB': 260}, {'optionA': 270, 'optionB': 260}, {'optionA': 270, 'optionB': 260}, {'optionA': 270, 'optionB': 260}, {'optionA': 270, 'optionB': 280}, {'optionA': 270, 'optionB': 280}, {'optionA': 270, 'optionB': 280}, {'optionA': 270, 'optionB': 280}, {'optionA': 270, 'optionB': 280}, {'optionA': 270, 'optionB': 280}, {'optionA': 270, 'optionB': 280}, {'optionA': 290, 'optionB': 280}, {'optionA': 290, 'optionB': 280}, {'optionA': 290, 'optionB': 280}, {'optionA': 290, 'optionB': 300}, {'optionA': 290, 'optionB': 300}, {'optionA': 310, 'optionB': 300}, {'optionA': 310, 'optionB': 300}, {'optionA': 310, 'optionB': 300}, {'optionA': 310, 'optionB': 300}, {'optionA': 310, 'optionB': 300}, {'optionA': 310, 'optionB': 300}, {'optionA': 310, 'optionB': 320}, {'optionA': 310, 'optionB': 320}], 'PT_TRIALS_N': 80, 'PT_TRIALS_PER_BLOCK': 20, 'PT_BLOCKS': 4, 'TEST_TRIALS_N': 200, 'TEST_TRIALS_PER_BLOCK': 40, 'TEST_BLOCKS': 5}","{'SHOW_TASK': True, 'TASK_ORDER_INDEX': 4, 'RESISTANCE_TO_FRAMING_ITEMS': [{'stimulus_html': '<p><b>Problem</b></p>\n                                <p>Imagine that recent evidence has shown that a pesticide is threatening the lives of 1,200 endangered animals. Two response options have been suggested:</p>\n                                <p style=""margin-left: 30px"">If Option A is used, 600 animals will be saved for sure.</p>\n                                <p style=""margin-left: 30px"">If Option B is used, there is a 75% chance that 800 animals will be saved, and a 25% chance that no animals will be saved.</p>\n                                <p>Which option do you recommend to use?</p>', 'label_min': 'Definitely would choose A', 'label_max': 'Definitely would choose B', 'id': 'rc1_1'}, {'stimulus_html': '<p><b>Problem</b></p>\n                                <p>Because of changes in tax laws, you may get back as much as $1200 in income tax. Your accountant has been exploring alternative ways to take advantage of this situation. He has developed two plans:</p>\n                                <p style=""margin-left: 30px"">If Plan A is adopted, you will get back $400 of the possible $1200.</p>\n                                <p style=""margin-left: 30px"">If Plan B is adopted, you have a 33% chance of getting back all $1200, and a 67% chance of getting back no money.</p>\n                                <p>Which plan would you use?</p>', 'label_min': 'Definitely would choose A', 'label_max': 'Definitely would choose B', 'id': 'rc1_2'}, {'stimulus_html': '<p><b>Problem</b></p>\n                                <p>Imagine that in one particular state it is projected that 1000 students will drop out of school during the next year. Two programs have been proposed to address this problem, but only one can be implemented. Based on other states\' experiences with the programs, estimates of the outcomes that can be expected from each program can be made. Assume for purposes of this decision that these estimates of the outcomes are accurate and are as follows:</p>\n                                <p style=""margin-left: 30px"">If Program A is adopted, 400 of the 1000 students will stay in school.</p>\n                                <p style=""margin-left: 30px"">If Program B is adopted, there is a 40% chance that all 1000 students will stay in school and 60% chance that none of the 1000 students will stay in school.</p>\n                                <p>Which program would you favor for implementation?</p>', 'label_min': 'Definitely would choose A', 'label_max': 'Definitely would choose B', 'id': 'rc1_3'}, {'stimulus_html': '<p><b>Problem</b></p>\n                                <p>Imagine that the U.S. is preparing for the outbreak of an unusual disease, which is expected to kill 600 people. Two alternative programs to combat the disease have been proposed. Assume that the exact scientific estimates of the consequences of the programs are as follows:</p>\n                                <p style=""margin-left: 30px"">If Program A is adopted, 200 people will be saved.</p>\n                                <p style=""margin-left: 30px"">If Program B is adopted, there is a 33% chance that 600 people will be saved, and a 67% chance that no people will be saved.</p>\n                                <p>Which program do you recommend to use?</p>', 'label_min': 'Definitely would choose A', 'label_max': 'Definitely would choose B', 'id': 'rc1_4'}, {'stimulus_html': '<p><b>Problem</b></p>\n                                <p>Imagine that your doctor tells you that you have a cancer that must be treated. Your choices are as follows:</p>\n                                <p style=""margin-left: 30px"">Surgery: Of 100 people having surgery, 90 live through the operation, and 34 are alive at the end of five years.</p>\n                                <p style=""margin-left: 30px"">Radiation therapy: Of 100 people having radiation therapy, all live through the treatment, and 22 are alive at the end of five years.</p>\n                                <p>Which treatment would you choose?</p>', 'label_min': 'Definitely would choose surgery', 'label_max': 'Definitely would choose radiation', 'id': 'rc1_5'}, {'stimulus_html': '<p><b>Problem</b></p>\n                                <p>Imagine that your client has $6,000 invested in the stock market. A downturn in the economy is occurring. You have two investment strategies that you can recommend under the existing circumstances to preserve your client\'s capital.</p>\n                                <p style=""margin-left: 30px"">If strategy A is followed, $2,000 of your client\'s investment will be saved.</p>\n                                <p style=""margin-left: 30px"">If strategy B is followed, there is a 33% chance that the entire $6,000 will be saved, and a 67% chance that none of the principal will be saved.</p>\n                                <p>Which of these two strategies would you favor?</p>', 'label_min': 'Definitely would choose A', 'label_max': 'Definitely would choose B', 'id': 'rc1_6'}, {'stimulus_html': '<p><b>Problem</b></p>\n                                <p>Imagine a hospital is treating 32 injured soldiers, who are all expected to lose one leg. There are two doctors that can help the soldiers, but only one can be hired:</p>\n                                <p style=""margin-left: 30px"">If Doctor A is hired, 20 soldiers will keep both legs.</p>\n                                <p style=""margin-left: 30px"">If Doctor B is hired, there is a 63% chance that all soldiers keep both legs and a 37% chance that nobody will save both legs.</p>\n                                <p>Which doctor do you recommend?</p>', 'label_min': 'Definitely would choose A', 'label_max': 'Definitely would choose B', 'id': 'rc1_7'}, {'stimulus_html': '<p><b>Problem</b></p>\n                                <p>Imagine that a type of condom has a 95% success rate. That is, if you have sex with someone who has the AIDS virus, there is a 95% chance that this type of condom will prevent you from being exposed to the AIDS virus.</p>\n                                <p>Should the government allow this type of condom to be advertised as ""an effective method for lowering the risk of AIDS""?</p>', 'label_min': 'Definitely no', 'label_max': 'Definitely yes', 'id': 'a1_1'}, {'stimulus_html': ""<p><b>Problem</b></p>\n                                <p>Imagine the following situation. You are entertaining a special friend by inviting them for dinner. You are making your favorite lasagna dish with ground beef. Your roommate goes to the grocery store and purchases a package of ground beef for you. The label says 80% lean ground beef.</p>\n                                <p>What's your evaluation of the quality of this ground beef?</p>"", 'label_min': 'Very low', 'label_max': 'Very high', 'id': 'a1_2'}, {'stimulus_html': '<p><b>Problem</b></p>\n                                <p>In a recent confidential survey completed by graduating seniors, 35% of those completing the survey stated that they had never cheated during their college career.</p>\n                                <p>Considering the results of the survey, how would you rate the incidence of cheating at your university?</p>', 'label_min': 'Very low', 'label_max': 'Very high', 'id': 'a1_3'}, {'stimulus_html': '<p><b>Problem</b></p>\n                                <p>As R&D manager, one of your project teams has come to you requesting an additional $100,000 in funds for a project you instituted several months ago. The project is already behind schedule and over budget, but the team still believes it can be successfully completed. You currently have $500,000 remaining in your budget unallocated, but which must carry you for the rest of the fiscal year. Lowering the balance by an additional $100,000 might jeopardize flexibility to respond to other opportunities.</p>\n                                <p>Evaluating the situation, you believe there is a fair chance the project will not succeed, in which case the additional funding would be lost; if successful, however, the money would be well spent. You also noticed that of the projects undertaken by this team, 30 of the last 50 have been successful.</p>\n                                <p>What is the likelihood you would fund the request?</p>', 'label_min': 'Very unlikely', 'label_max': 'Very likely', 'id': 'a1_4'}, {'stimulus_html': ""<p><b>Problem</b></p>\n                                <p>Suppose a student got 90% correct in the mid-term exam and 70% correct in the final-term exam, what would be your evaluations of this student's performance?</p>"", 'label_min': 'Very poor', 'label_max': 'Very good', 'id': 'a1_5'}, {'stimulus_html': '<p><b>Problem</b></p>\n                                <p>Imagine that a woman parked illegally. After talking to her, you believe that there is a 20% chance that she did not know she parked illegally.</p>\n                                <p>With this in mind, how much of a fine do you believe this woman deserves?</p>', 'label_min': 'Minimum fine', 'label_max': 'Maximum fine', 'id': 'a1_6'}, {'stimulus_html': '<p><b>Problem</b></p>\n                                <p>Imagine that a new technique has been developed to treat a particular kind of cancer. This technique has a 50% chance of success, and is available at the local hospital.</p>\n                                <p>A member of your immediate family is a patient at the local hospital with this kind of cancer. Would you encourage him or her to undergo treatment using this technique?</p>', 'label_min': 'Definitely no', 'label_max': 'Definitely yes', 'id': 'a1_7'}, {'stimulus_html': '<p><b>Problem</b></p>\n                                <p>Imagine a hospital is treating 32 injured soldiers, who are all expected to lose one leg. There are two doctors that can help the soldiers, but only one can be hired:</p>\n                                <p style=""margin-left: 30px"">If Doctor A is hired, 12 soldiers will lose one leg.</p>\n                                <p style=""margin-left: 30px"">If Doctor B is hired, there is a 63% chance that nobody loses a leg and a 37% chance that all lose a leg.</p>\n                                <p>Which doctor do you recommend?</p>', 'label_min': 'Definitely would choose A', 'label_max': 'Definitely would choose B', 'id': 'rc2_1'}, {'stimulus_html': '<p><b>Problem</b></p>\n                                <p>Imagine that the U.S. is preparing for the outbreak of an unusual disease, which is expected to kill 600 people. Two alternative programs to combat the disease have been proposed. Assume that the exact scientific estimates of the consequences of the programs are as follows:</p>\n                                <p style=""margin-left: 30px"">If Program A is adopted, 400 people will die.</p>\n                                <p style=""margin-left: 30px"">If Program B is adopted, there is a 33% chance that nobody will die, and a 67% chance that 600 people will die.</p>\n                                <p>Which program do you recommend to use?</p>', 'label_min': 'Definitely would choose A', 'label_max': 'Definitely would choose B', 'id': 'rc2_2'}, {'stimulus_html': '<p><b>Problem</b></p>\n                                <p>Imagine that your client has $6,000 invested in the stock market. A downturn in the economy is occurring. You have two investment strategies that you can recommend under the existing circumstances to preserve your client\'s capital.</p>\n                                <p style=""margin-left: 30px"">If strategy A is followed, $4,000 of your client\'s investment will be lost.</p>\n                                <p style=""margin-left: 30px"">If strategy B is followed, there is a 33% chance that the nothing will be lost, and a 67% chance that $6,000 will be lost.</p>\n                                <p>Which of these two strategies would you favor?</p>', 'label_min': 'Definitely would choose A', 'label_max': 'Definitely would choose B', 'id': 'rc2_3'}, {'stimulus_html': '<p><b>Problem</b></p>\n                                <p>Because of changes in tax laws, you may get back as much as $1200 in income tax. Your accountant has been exploring alternative ways to take advantage of this situation. He has developed two plans:</p>\n                                <p style=""margin-left: 30px"">If Plan A is adopted, you will lose $800 of the possible $1200.</p>\n                                <p style=""margin-left: 30px"">If Plan B is adopted, you have a 33% chance of losing none of the money, and a 67% chance of losing all $1200.</p>\n                                <p>Which plan would you use?</p>', 'label_min': 'Definitely would choose A', 'label_max': 'Definitely would choose B', 'id': 'rc2_4'}, {'stimulus_html': '<p><b>Problem</b></p>\n                                <p>Imagine that recent evidence has shown that a pesticide is threatening the lives of 1,200 endangered animals. Two response options have been suggested:</p>\n                                <p style=""margin-left: 30px"">If Option A is used, 600 animals will be lost for sure.</p>\n                                <p style=""margin-left: 30px"">If Option B is used, there is a 75% chance that 400 animals will be lost, and a 25% chance that 1,200 animals will be lost.</p>\n                                <p>Which option do you recommend to use?</p>', 'label_min': 'Definitely would choose A', 'label_max': 'Definitely would choose B', 'id': 'rc2_5'}, {'stimulus_html': '<p><b>Problem</b></p>\n                                <p>Imagine that your doctor tells you that you have a cancer that must be treated. Your choices are as follows:</p>\n                                <p style=""margin-left: 30px"">Surgery: Of 100 people having surgery, 10 die because of the operation, and 66 die by the end of five years.</p>\n                                <p style=""margin-left: 30px"">Radiation therapy: Of 100 people having radiation therapy, none die during the treatment, and 78 die by the end of five years.</p>\n                                <p>Which treatment would you choose?</p>', 'label_min': 'Definitely would choose surgery', 'label_max': 'Definitely would choose radiation', 'id': 'rc2_6'}, {'stimulus_html': '<p><b>Problem</b></p>\n                                <p>Imagine that in one particular state it is projected that 1000 students will drop out of school during the next year. Two programs have been proposed to address this problem, but only one can be implemented. Based on other states\' experiences with the programs, estimates of the outcomes that can be expected from each program can be made. Assume for purposes of this decision that these estimates of the outcomes are accurate and are as follows:</p>\n                                <p style=""margin-left: 30px"">If Program A is adopted, 600 of the 1000 students will drop out of school.</p>\n                                <p style=""margin-left: 30px"">If Program B is adopted, there is a 40% chance that none of the 1000 students will drop out of school and 60% chance that all 1000 students will drop out of school.</p>\n                                <p>Which program would you favor for implementation?</p>', 'label_min': 'Definitely would choose A', 'label_max': 'Definitely would choose B', 'id': 'rc2_7'}, {'stimulus_html': '<p><b>Problem</b></p>\n                                <p>As R&D manager, one of your project teams has come to you requesting an additional $100,000 in funds for a project you instituted several months ago. The project is already behind schedule and over budget, but the team still believes it can be successfully completed. You currently have $500,000 remaining in your budget unallocated, but which must carry you for the rest of the fiscal year. Lowering the balance by an additional $100,000 might jeopardize flexibility to respond to other opportunities.</p>\n                                <p>Evaluating the situation, you believe there is a fair chance the project will not succeed, in which case the additional funding would be lost; if successful, however, the money would be well spent. You also noticed that of the projects undertaken by this team, 20 of the last 50 have been unsuccessful.</p>\n                                <p>What is the likelihood you would fund the request?</p>', 'label_min': 'Very unlikely', 'label_max': 'Very likely', 'id': 'a2_1'}, {'stimulus_html': '<p><b>Problem</b></p>\n                                <p>Imagine that a woman parked illegally. After talking to her, you believe that there is an 80% chance that she knew she parked illegally</p>\n                                <p>With this in mind, how much of a fine do you believe this woman deserves?</p>', 'label_min': 'Minimum fine', 'label_max': 'Maximum fine', 'id': 'a2_2'}, {'stimulus_html': '<p><b>Problem</b></p>\n                                <p>In a recent confidential survey completed by graduating seniors, 65% of those completing the survey stated that they had cheated during their college career.</p>\n                                <p>Considering the results of the survey, how would you rate the incidence of cheating at your university?</p>', 'label_min': 'Very low', 'label_max': 'Very high', 'id': 'a2_3'}, {'stimulus_html': '<p><b>Problem</b></p>\n                                <p>Imagine that a new technique has been developed to treat a particular kind of cancer. This technique has a 50% chance of failure, and is available at the local hospital.</p>\n                                <p>A member of your immediate family is a patient at the local hospital with this kind of cancer. How likely are you to encourage him or her to undergo treatment using this technique?</p>', 'label_min': 'Definitely no', 'label_max': 'Definitely yes', 'id': 'a2_4'}, {'stimulus_html': ""<p><b>Problem</b></p>\n                                <p>Imagine the following situation. You are entertaining a special friend by inviting them for dinner. You are making your favorite lasagna dish with ground beef. Your roommate goes to the grocery store and purchases a package of ground beef for you. The label says 20% fat ground beef.</p>\n                                <p>What's your evaluation of the quality of this ground beef?</p>"", 'label_min': 'Very low', 'label_max': 'Very high', 'id': 'a2_5'}, {'stimulus_html': '<p><b>Problem</b></p>\n                                <p>Imagine that a type of condom has a 5% failure rate. That is, if you have sex with someone who has the AIDS virus, there is a 5% chance that this type of condom will fail to prevent you from being exposed to the AIDS virus.</p>\n                                <p>Should the government allow this type of condom to be advertised as ""an effective method for lowering the risk of AIDS""?</p>', 'label_min': 'Definitely no', 'label_max': 'Definitely yes', 'id': 'a2_6'}, {'stimulus_html': ""<p><b>Problem</b></p>\n                                <p>Suppose a student got 10% incorrect in the mid-term exam and 30% incorrect in the final-term exam, what would be your evaluations of this student's performance?</p>"", 'label_min': 'Very poor', 'label_max': 'Very good', 'id': 'a2_7'}]}","{'SHOW_TASK': True, 'SHORT_VERSION': False, 'TASK_ORDER_INDEX': 5, 'USE_ANCHOR_VERSION': False, 'TASK_VERSION': 'A', 'TRIAL_CHOICE_TYPES': ['conflict', 'harmony'], 'SMALL_LOTTERY_GOLD_COIN_PROPS': [0.1, 0.2, 0.3], 'LARGE_LOTTERY_GOLD_COIN_PROP_RANGE_DIFF': [0.01, 0.02, 0.03, 0.04, 0.05, 0.06, 0.07, 0.08], 'DENOMINATOR_DISPLAY_TYPES': {'task_version_A': [{'small': 'text', 'large': 'text'}, {'small': 'array', 'large': 'array'}, {'small': 'text', 'large': 'array'}, {'small': 'array', 'large': 'text'}], 'task_version_B': [{'small': 'both', 'large': 'both'}]}, 'LOTTERY_TOTAL_COINS': {'small': 10, 'large': 400}, 'TRIAL_TIME_LIMIT': 5000, 'GOLD_COINS_COUNTER': 0, 'ANCHOR_FORM_DATA': {'task_version_A': {'left_lottery_types': ['small', 'large', 'large', 'large', 'small', 'small', 'large', 'small', 'small', 'large', 'small', 'large', 'small', 'large', 'large', 'small', 'large', 'large', 'small', 'large', 'small', 'small', 'large', 'small', 'large', 'small', 'large', 'large', 'small', 'small', 'small', 'small', 'small', 'small', 'small', 'large', 'small', 'large', 'large', 'small', 'large', 'small', 'small', 'large', 'large', 'large', 'large', 'large'], 'denominator_display_types': {'conflict': [{'small': 'text', 'large': 'text'}, {'small': 'text', 'large': 'array'}, {'small': 'array', 'large': 'array'}, {'small': 'array', 'large': 'array'}, {'small': 'text', 'large': 'array'}, {'small': 'array', 'large': 'array'}, {'small': 'array', 'large': 'text'}, {'small': 'array', 'large': 'text'}, {'small': 'array', 'large': 'array'}, {'small': 'array', 'large': 'array'}, {'small': 'text', 'large': 'array'}, {'small': 'array', 'large': 'text'}, {'small': 'array', 'large': 'text'}, {'small': 'text', 'large': 'array'}, {'small': 'array', 'large': 'array'}, {'small': 'text', 'large': 'text'}, {'small': 'text', 'large': 'text'}, {'small': 'text', 'large': 'text'}, {'small': 'text', 'large': 'array'}, {'small': 'text', 'large': 'text'}, {'small': 'array', 'large': 'text'}, {'small': 'array', 'large': 'text'}, {'small': 'text', 'large': 'array'}, {'small': 'text', 'large': 'text'}], 'harmony': [{'small': 'text', 'large': 'text'}, {'small': 'array', 'large': 'text'}, {'small': 'text', 'large': 'text'}, {'small': 'array', 'large': 'text'}, {'small': 'array', 'large': 'text'}, {'small': 'array', 'large': 'text'}, {'small': 'array', 'large': 'array'}, {'small': 'array', 'large': 'array'}, {'small': 'text', 'large': 'text'}, {'small': 'text', 'large': 'array'}, {'small': 'text', 'large': 'array'}, {'small': 'text', 'large': 'text'}, {'small': 'array', 'large': 'array'}, {'small': 'text', 'large': 'array'}, {'small': 'array', 'large': 'array'}, {'small': 'array', 'large': 'text'}, {'small': 'array', 'large': 'array'}, {'small': 'text', 'large': 'text'}, {'small': 'text', 'large': 'array'}, {'small': 'text', 'large': 'array'}, {'small': 'array', 'large': 'text'}, {'small': 'text', 'large': 'text'}, {'small': 'array', 'large': 'array'}, {'small': 'text', 'large': 'array'}]}, 'left_lottery_gold_prop': [0.2, 0.29, 0.27, 0.28, 0.2, 0.3, 0.07, 0.3, 0.1, 0.36, 0.1, 0.28, 0.1, 0.14, 0.18, 0.2, 0.26, 0.25, 0.2, 0.13, 0.2, 0.3, 0.18, 0.2, 0.12, 0.1, 0.25, 0.23, 0.2, 0.3, 0.2, 0.3, 0.3, 0.2, 0.1, 0.16, 0.1, 0.31, 0.27, 0.1, 0.19, 0.1, 0.3, 0.26, 0.05, 0.34, 0.06, 0.24], 'right_lottery_gold_prop': [0.22, 0.3, 0.2, 0.2, 0.13, 0.37, 0.1, 0.24, 0.03, 0.3, 0.09, 0.3, 0.15, 0.1, 0.1, 0.15, 0.2, 0.3, 0.21, 0.1, 0.12, 0.38, 0.2, 0.14, 0.1, 0.17, 0.2, 0.3, 0.23, 0.32, 0.17, 0.22, 0.35, 0.16, 0.02, 0.1, 0.11, 0.3, 0.3, 0.04, 0.2, 0.08, 0.33, 0.3, 0.1, 0.3, 0.1, 0.2], 'left_lottery_total_coins': [10, 400, 400, 400, 10, 10, 400, 10, 10, 400, 10, 400, 10, 400, 400, 10, 400, 400, 10, 400, 10, 10, 400, 10, 400, 10, 400, 400, 10, 10, 10, 10, 10, 10, 10, 400, 10, 400, 400, 10, 400, 10, 10, 400, 400, 400, 400, 400], 'right_lottery_total_coins': [400, 10, 10, 10, 400, 400, 10, 400, 400, 10, 400, 10, 400, 10, 10, 400, 10, 10, 400, 10, 400, 400, 10, 400, 10, 400, 10, 10, 400, 400, 400, 400, 400, 400, 400, 10, 400, 10, 10, 400, 10, 400, 400, 10, 10, 10, 10, 10]}, 'task_version_B': {'left_lottery_types': ['small', 'small', 'large', 'large', 'small', 'small', 'large', 'small', 'small', 'large', 'large', 'small', 'large', 'small', 'large', 'large', 'large', 'small', 'large', 'small', 'small', 'large', 'large', 'small', 'small', 'large', 'large', 'small', 'small', 'large', 'large', 'small', 'small', 'large', 'small', 'large', 'small', 'large', 'small', 'large', 'small', 'small', 'small', 'large', 'large', 'large', 'small', 'large'], 'denominator_display_types': {'conflict': [{'small': 'both', 'large': 'both'}, {'small': 'both', 'large': 'both'}, {'small': 'both', 'large': 'both'}, {'small': 'both', 'large': 'both'}, {'small': 'both', 'large': 'both'}, {'small': 'both', 'large': 'both'}, {'small': 'both', 'large': 'both'}, {'small': 'both', 'large': 'both'}, {'small': 'both', 'large': 'both'}, {'small': 'both', 'large': 'both'}, {'small': 'both', 'large': 'both'}, {'small': 'both', 'large': 'both'}, {'small': 'both', 'large': 'both'}, {'small': 'both', 'large': 'both'}, {'small': 'both', 'large': 'both'}, {'small': 'both', 'large': 'both'}, {'small': 'both', 'large': 'both'}, {'small': 'both', 'large': 'both'}, {'small': 'both', 'large': 'both'}, {'small': 'both', 'large': 'both'}, {'small': 'both', 'large': 'both'}, {'small': 'both', 'large': 'both'}, {'small': 'both', 'large': 'both'}, {'small': 'both', 'large': 'both'}], 'harmony': [{'small': 'both', 'large': 'both'}, {'small': 'both', 'large': 'both'}, {'small': 'both', 'large': 'both'}, {'small': 'both', 'large': 'both'}, {'small': 'both', 'large': 'both'}, {'small': 'both', 'large': 'both'}, {'small': 'both', 'large': 'both'}, {'small': 'both', 'large': 'both'}, {'small': 'both', 'large': 'both'}, {'small': 'both', 'large': 'both'}, {'small': 'both', 'large': 'both'}, {'small': 'both', 'large': 'both'}, {'small': 'both', 'large': 'both'}, {'small': 'both', 'large': 'both'}, {'small': 'both', 'large': 'both'}, {'small': 'both', 'large': 'both'}, {'small': 'both', 'large': 'both'}, {'small': 'both', 'large': 'both'}, {'small': 'both', 'large': 'both'}, {'small': 'both', 'large': 'both'}, {'small': 'both', 'large': 'both'}, {'small': 'both', 'large': 'both'}, {'small': 'both', 'large': 'both'}, {'small': 'both', 'large': 'both'}]}, 'left_lottery_gold_prop': [0.2, 0.3, 0.24, 0.14, 0.1, 0.2, 0.35, 0.1, 0.3, 0.07, 0.09, 0.3, 0.18, 0.1, 0.34, 0.22, 0.32, 0.3, 0.27, 0.1, 0.3, 0.08, 0.15, 0.1, 0.1, 0.25, 0.29, 0.1, 0.2, 0.18, 0.16, 0.3, 0.2, 0.33, 0.3, 0.38, 0.2, 0.17, 0.2, 0.26, 0.2, 0.3, 0.2, 0.02, 0.04, 0.12, 0.1, 0.27], 'right_lottery_gold_prop': [0.13, 0.25, 0.3, 0.1, 0.03, 0.23, 0.3, 0.05, 0.31, 0.1, 0.1, 0.22, 0.2, 0.16, 0.3, 0.2, 0.3, 0.26, 0.3, 0.15, 0.23, 0.1, 0.2, 0.11, 0.13, 0.2, 0.3, 0.12, 0.14, 0.1, 0.2, 0.37, 0.19, 0.3, 0.36, 0.3, 0.24, 0.1, 0.21, 0.2, 0.28, 0.28, 0.17, 0.1, 0.1, 0.2, 0.06, 0.2], 'left_lottery_total_coins': [10, 10, 400, 400, 10, 10, 400, 10, 10, 400, 400, 10, 400, 10, 400, 400, 400, 10, 400, 10, 10, 400, 400, 10, 10, 400, 400, 10, 10, 400, 400, 10, 10, 400, 10, 400, 10, 400, 10, 400, 10, 10, 10, 400, 400, 400, 10, 400], 'right_lottery_total_coins': [400, 400, 10, 10, 400, 400, 10, 400, 400, 10, 10, 400, 10, 400, 10, 10, 10, 400, 10, 400, 400, 10, 10, 400, 400, 10, 10, 400, 400, 10, 10, 400, 400, 10, 400, 10, 400, 10, 400, 10, 400, 400, 400, 10, 10, 10, 400, 10]}}, 'PT_TRIALS_N': 8, 'PT_TRIALS_PER_BLOCK': 8, 'PT_BLOCKS': 1, 'TEST_TRIALS_N': 48, 'TEST_TRIALS_PER_BLOCK': 48, 'TEST_BLOCKS': 1}","{'SHOW_TASK': True, 'SHORT_VERSION': False, 'TASK_ORDER_INDEX': 6, 'USE_ANCHOR_VERSION': True, 'TASK_VERSION': 'B', 'TRIAL_CHOICE_TYPES': ['conflict', 'harmony'], 'SMALL_LOTTERY_GOLD_COIN_PROPS': [0.1, 0.2, 0.3], 'LARGE_LOTTERY_GOLD_COIN_PROP_RANGE_DIFF': [0.01, 0.02, 0.03, 0.04, 0.05, 0.06, 0.07, 0.08], 'DENOMINATOR_DISPLAY_TYPES': {'task_version_A': [{'small': 'text', 'large': 'text'}, {'small': 'array', 'large': 'array'}, {'small': 'text', 'large': 'array'}, {'small': 'array', 'large': 'text'}], 'task_version_B': [{'small': 'both', 'large': 'both'}]}, 'LOTTERY_TOTAL_COINS': {'small': 10, 'large': 400}, 'TRIAL_TIME_LIMIT': 5000, 'GOLD_COINS_COUNTER': 0, 'ANCHOR_FORM_DATA': {'task_version_A': {'left_lottery_types': ['small', 'large', 'large', 'large', 'small', 'small', 'large', 'small', 'small', 'large', 'small', 'large', 'small', 'large', 'large', 'small', 'large', 'large', 'small', 'large', 'small', 'small', 'large', 'small', 'large', 'small', 'large', 'large', 'small', 'small', 'small', 'small', 'small', 'small', 'small', 'large', 'small', 'large', 'large', 'small', 'large', 'small', 'small', 'large', 'large', 'large', 'large', 'large'], 'denominator_display_types': {'conflict': [{'small': 'text', 'large': 'text'}, {'small': 'text', 'large': 'array'}, {'small': 'array', 'large': 'array'}, {'small': 'array', 'large': 'array'}, {'small': 'text', 'large': 'array'}, {'small': 'array', 'large': 'array'}, {'small': 'array', 'large': 'text'}, {'small': 'array', 'large': 'text'}, {'small': 'array', 'large': 'array'}, {'small': 'array', 'large': 'array'}, {'small': 'text', 'large': 'array'}, {'small': 'array', 'large': 'text'}, {'small': 'array', 'large': 'text'}, {'small': 'text', 'large': 'array'}, {'small': 'array', 'large': 'array'}, {'small': 'text', 'large': 'text'}, {'small': 'text', 'large': 'text'}, {'small': 'text', 'large': 'text'}, {'small': 'text', 'large': 'array'}, {'small': 'text', 'large': 'text'}, {'small': 'array', 'large': 'text'}, {'small': 'array', 'large': 'text'}, {'small': 'text', 'large': 'array'}, {'small': 'text', 'large': 'text'}], 'harmony': [{'small': 'text', 'large': 'text'}, {'small': 'array', 'large': 'text'}, {'small': 'text', 'large': 'text'}, {'small': 'array', 'large': 'text'}, {'small': 'array', 'large': 'text'}, {'small': 'array', 'large': 'text'}, {'small': 'array', 'large': 'array'}, {'small': 'array', 'large': 'array'}, {'small': 'text', 'large': 'text'}, {'small': 'text', 'large': 'array'}, {'small': 'text', 'large': 'array'}, {'small': 'text', 'large': 'text'}, {'small': 'array', 'large': 'array'}, {'small': 'text', 'large': 'array'}, {'small': 'array', 'large': 'array'}, {'small': 'array', 'large': 'text'}, {'small': 'array', 'large': 'array'}, {'small': 'text', 'large': 'text'}, {'small': 'text', 'large': 'array'}, {'small': 'text', 'large': 'array'}, {'small': 'array', 'large': 'text'}, {'small': 'text', 'large': 'text'}, {'small': 'array', 'large': 'array'}, {'small': 'text', 'large': 'array'}]}, 'left_lottery_gold_prop': [0.2, 0.29, 0.27, 0.28, 0.2, 0.3, 0.07, 0.3, 0.1, 0.36, 0.1, 0.28, 0.1, 0.14, 0.18, 0.2, 0.26, 0.25, 0.2, 0.13, 0.2, 0.3, 0.18, 0.2, 0.12, 0.1, 0.25, 0.23, 0.2, 0.3, 0.2, 0.3, 0.3, 0.2, 0.1, 0.16, 0.1, 0.31, 0.27, 0.1, 0.19, 0.1, 0.3, 0.26, 0.05, 0.34, 0.06, 0.24], 'right_lottery_gold_prop': [0.22, 0.3, 0.2, 0.2, 0.13, 0.37, 0.1, 0.24, 0.03, 0.3, 0.09, 0.3, 0.15, 0.1, 0.1, 0.15, 0.2, 0.3, 0.21, 0.1, 0.12, 0.38, 0.2, 0.14, 0.1, 0.17, 0.2, 0.3, 0.23, 0.32, 0.17, 0.22, 0.35, 0.16, 0.02, 0.1, 0.11, 0.3, 0.3, 0.04, 0.2, 0.08, 0.33, 0.3, 0.1, 0.3, 0.1, 0.2], 'left_lottery_total_coins': [10, 400, 400, 400, 10, 10, 400, 10, 10, 400, 10, 400, 10, 400, 400, 10, 400, 400, 10, 400, 10, 10, 400, 10, 400, 10, 400, 400, 10, 10, 10, 10, 10, 10, 10, 400, 10, 400, 400, 10, 400, 10, 10, 400, 400, 400, 400, 400], 'right_lottery_total_coins': [400, 10, 10, 10, 400, 400, 10, 400, 400, 10, 400, 10, 400, 10, 10, 400, 10, 10, 400, 10, 400, 400, 10, 400, 10, 400, 10, 10, 400, 400, 400, 400, 400, 400, 400, 10, 400, 10, 10, 400, 10, 400, 400, 10, 10, 10, 10, 10]}, 'task_version_B': {'left_lottery_types': ['small', 'small', 'large', 'large', 'small', 'small', 'large', 'small', 'small', 'large', 'large', 'small', 'large', 'small', 'large', 'large', 'large', 'small', 'large', 'small', 'small', 'large', 'large', 'small', 'small', 'large', 'large', 'small', 'small', 'large', 'large', 'small', 'small', 'large', 'small', 'large', 'small', 'large', 'small', 'large', 'small', 'small', 'small', 'large', 'large', 'large', 'small', 'large'], 'denominator_display_types': {'conflict': [{'small': 'both', 'large': 'both'}, {'small': 'both', 'large': 'both'}, {'small': 'both', 'large': 'both'}, {'small': 'both', 'large': 'both'}, {'small': 'both', 'large': 'both'}, {'small': 'both', 'large': 'both'}, {'small': 'both', 'large': 'both'}, {'small': 'both', 'large': 'both'}, {'small': 'both', 'large': 'both'}, {'small': 'both', 'large': 'both'}, {'small': 'both', 'large': 'both'}, {'small': 'both', 'large': 'both'}, {'small': 'both', 'large': 'both'}, {'small': 'both', 'large': 'both'}, {'small': 'both', 'large': 'both'}, {'small': 'both', 'large': 'both'}, {'small': 'both', 'large': 'both'}, {'small': 'both', 'large': 'both'}, {'small': 'both', 'large': 'both'}, {'small': 'both', 'large': 'both'}, {'small': 'both', 'large': 'both'}, {'small': 'both', 'large': 'both'}, {'small': 'both', 'large': 'both'}, {'small': 'both', 'large': 'both'}], 'harmony': [{'small': 'both', 'large': 'both'}, {'small': 'both', 'large': 'both'}, {'small': 'both', 'large': 'both'}, {'small': 'both', 'large': 'both'}, {'small': 'both', 'large': 'both'}, {'small': 'both', 'large': 'both'}, {'small': 'both', 'large': 'both'}, {'small': 'both', 'large': 'both'}, {'small': 'both', 'large': 'both'}, {'small': 'both', 'large': 'both'}, {'small': 'both', 'large': 'both'}, {'small': 'both', 'large': 'both'}, {'small': 'both', 'large': 'both'}, {'small': 'both', 'large': 'both'}, {'small': 'both', 'large': 'both'}, {'small': 'both', 'large': 'both'}, {'small': 'both', 'large': 'both'}, {'small': 'both', 'large': 'both'}, {'small': 'both', 'large': 'both'}, {'small': 'both', 'large': 'both'}, {'small': 'both', 'large': 'both'}, {'small': 'both', 'large': 'both'}, {'small': 'both', 'large': 'both'}, {'small': 'both', 'large': 'both'}]}, 'left_lottery_gold_prop': [0.2, 0.3, 0.24, 0.14, 0.1, 0.2, 0.35, 0.1, 0.3, 0.07, 0.09, 0.3, 0.18, 0.1, 0.34, 0.22, 0.32, 0.3, 0.27, 0.1, 0.3, 0.08, 0.15, 0.1, 0.1, 0.25, 0.29, 0.1, 0.2, 0.18, 0.16, 0.3, 0.2, 0.33, 0.3, 0.38, 0.2, 0.17, 0.2, 0.26, 0.2, 0.3, 0.2, 0.02, 0.04, 0.12, 0.1, 0.27], 'right_lottery_gold_prop': [0.13, 0.25, 0.3, 0.1, 0.03, 0.23, 0.3, 0.05, 0.31, 0.1, 0.1, 0.22, 0.2, 0.16, 0.3, 0.2, 0.3, 0.26, 0.3, 0.15, 0.23, 0.1, 0.2, 0.11, 0.13, 0.2, 0.3, 0.12, 0.14, 0.1, 0.2, 0.37, 0.19, 0.3, 0.36, 0.3, 0.24, 0.1, 0.21, 0.2, 0.28, 0.28, 0.17, 0.1, 0.1, 0.2, 0.06, 0.2], 'left_lottery_total_coins': [10, 10, 400, 400, 10, 10, 400, 10, 10, 400, 400, 10, 400, 10, 400, 400, 400, 10, 400, 10, 10, 400, 400, 10, 10, 400, 400, 10, 10, 400, 400, 10, 10, 400, 10, 400, 10, 400, 10, 400, 10, 10, 10, 400, 400, 400, 10, 400], 'right_lottery_total_coins': [400, 400, 10, 10, 400, 400, 10, 400, 400, 10, 10, 400, 10, 400, 10, 10, 10, 400, 10, 400, 400, 10, 10, 400, 400, 10, 10, 400, 400, 10, 10, 400, 400, 10, 400, 10, 400, 10, 400, 10, 400, 400, 400, 10, 10, 10, 400, 10]}}, 'PT_TRIALS_N': 8, 'PT_TRIALS_PER_BLOCK': 8, 'PT_BLOCKS': 1, 'TEST_TRIALS_N': 48, 'TEST_TRIALS_PER_BLOCK': 48, 'TEST_BLOCKS': 1}","{'SHOW_TASK': True, 'TASK_ORDER_INDEX': 7, 'DATA': [{'id': 'NS_1', 'prompt': '10, 4, ____, -8, -14, -20', 'simulation_range': [-20, 10]}, {'id': 'NS_2', 'prompt': '3, 6, 10, 15, 21, ____', 'simulation_range': [0, 25]}, {'id': 'NS_3', 'prompt': '121, 100, 81, ____, 49', 'simulation_range': [49, 121]}, {'id': 'NS_4', 'prompt': '3, 10, 16, 23, ____, 36', 'simulation_range': [3, 36]}, {'id': 'NS_5', 'prompt': '3/21, ____, 13/11, 18/6, 23/1, 28/-4', 'simulation_range': [-1, 20]}, {'id': 'NS_6', 'prompt': '200, 198, 192, 174, ____', 'simulation_range': [150, 250]}, {'id': 'NS_7', 'prompt': '3, 2, 10, 4, 19, 6, 30, 8, ____', 'simulation_range': [0, 40]}, {'id': 'NS_8', 'prompt': '10000, 9000, ____, 8890, 8889', 'simulation_range': [8000, 10000]}, {'id': 'NS_9', 'prompt': '3/4, 4/6, 6/8, 8/12, ____', 'simulation_range': [0, 10]}], 'TEST_TRIALS_N': 9, 'TEST_TRIALS_PER_BLOCK': 9, 'TEST_BLOCKS': 1}","{'SHOW_TASK': True, 'TASK_ORDER_INDEX': 8, 'RESISTANCE_TO_FRAMING_ITEMS': [{'stimulus_html': '<p><b>Problem</b></p>\n                                <p>Imagine that recent evidence has shown that a pesticide is threatening the lives of 1,200 endangered animals. Two response options have been suggested:</p>\n                                <p style=""margin-left: 30px"">If Option A is used, 600 animals will be saved for sure.</p>\n                                <p style=""margin-left: 30px"">If Option B is used, there is a 75% chance that 800 animals will be saved, and a 25% chance that no animals will be saved.</p>\n                                <p>Which option do you recommend to use?</p>', 'label_min': 'Definitely would choose A', 'label_max': 'Definitely would choose B', 'id': 'rc1_1'}, {'stimulus_html': '<p><b>Problem</b></p>\n                                <p>Because of changes in tax laws, you may get back as much as $1200 in income tax. Your accountant has been exploring alternative ways to take advantage of this situation. He has developed two plans:</p>\n                                <p style=""margin-left: 30px"">If Plan A is adopted, you will get back $400 of the possible $1200.</p>\n                                <p style=""margin-left: 30px"">If Plan B is adopted, you have a 33% chance of getting back all $1200, and a 67% chance of getting back no money.</p>\n                                <p>Which plan would you use?</p>', 'label_min': 'Definitely would choose A', 'label_max': 'Definitely would choose B', 'id': 'rc1_2'}, {'stimulus_html': '<p><b>Problem</b></p>\n                                <p>Imagine that in one particular state it is projected that 1000 students will drop out of school during the next year. Two programs have been proposed to address this problem, but only one can be implemented. Based on other states\' experiences with the programs, estimates of the outcomes that can be expected from each program can be made. Assume for purposes of this decision that these estimates of the outcomes are accurate and are as follows:</p>\n                                <p style=""margin-left: 30px"">If Program A is adopted, 400 of the 1000 students will stay in school.</p>\n                                <p style=""margin-left: 30px"">If Program B is adopted, there is a 40% chance that all 1000 students will stay in school and 60% chance that none of the 1000 students will stay in school.</p>\n                                <p>Which program would you favor for implementation?</p>', 'label_min': 'Definitely would choose A', 'label_max': 'Definitely would choose B', 'id': 'rc1_3'}, {'stimulus_html': '<p><b>Problem</b></p>\n                                <p>Imagine that the U.S. is preparing for the outbreak of an unusual disease, which is expected to kill 600 people. Two alternative programs to combat the disease have been proposed. Assume that the exact scientific estimates of the consequences of the programs are as follows:</p>\n                                <p style=""margin-left: 30px"">If Program A is adopted, 200 people will be saved.</p>\n                                <p style=""margin-left: 30px"">If Program B is adopted, there is a 33% chance that 600 people will be saved, and a 67% chance that no people will be saved.</p>\n                                <p>Which program do you recommend to use?</p>', 'label_min': 'Definitely would choose A', 'label_max': 'Definitely would choose B', 'id': 'rc1_4'}, {'stimulus_html': '<p><b>Problem</b></p>\n                                <p>Imagine that your doctor tells you that you have a cancer that must be treated. Your choices are as follows:</p>\n                                <p style=""margin-left: 30px"">Surgery: Of 100 people having surgery, 90 live through the operation, and 34 are alive at the end of five years.</p>\n                                <p style=""margin-left: 30px"">Radiation therapy: Of 100 people having radiation therapy, all live through the treatment, and 22 are alive at the end of five years.</p>\n                                <p>Which treatment would you choose?</p>', 'label_min': 'Definitely would choose surgery', 'label_max': 'Definitely would choose radiation', 'id': 'rc1_5'}, {'stimulus_html': '<p><b>Problem</b></p>\n                                <p>Imagine that your client has $6,000 invested in the stock market. A downturn in the economy is occurring. You have two investment strategies that you can recommend under the existing circumstances to preserve your client\'s capital.</p>\n                                <p style=""margin-left: 30px"">If strategy A is followed, $2,000 of your client\'s investment will be saved.</p>\n                                <p style=""margin-left: 30px"">If strategy B is followed, there is a 33% chance that the entire $6,000 will be saved, and a 67% chance that none of the principal will be saved.</p>\n                                <p>Which of these two strategies would you favor?</p>', 'label_min': 'Definitely would choose A', 'label_max': 'Definitely would choose B', 'id': 'rc1_6'}, {'stimulus_html': '<p><b>Problem</b></p>\n                                <p>Imagine a hospital is treating 32 injured soldiers, who are all expected to lose one leg. There are two doctors that can help the soldiers, but only one can be hired:</p>\n                                <p style=""margin-left: 30px"">If Doctor A is hired, 20 soldiers will keep both legs.</p>\n                                <p style=""margin-left: 30px"">If Doctor B is hired, there is a 63% chance that all soldiers keep both legs and a 37% chance that nobody will save both legs.</p>\n                                <p>Which doctor do you recommend?</p>', 'label_min': 'Definitely would choose A', 'label_max': 'Definitely would choose B', 'id': 'rc1_7'}, {'stimulus_html': '<p><b>Problem</b></p>\n                                <p>Imagine that a type of condom has a 95% success rate. That is, if you have sex with someone who has the AIDS virus, there is a 95% chance that this type of condom will prevent you from being exposed to the AIDS virus.</p>\n                                <p>Should the government allow this type of condom to be advertised as ""an effective method for lowering the risk of AIDS""?</p>', 'label_min': 'Definitely no', 'label_max': 'Definitely yes', 'id': 'a1_1'}, {'stimulus_html': ""<p><b>Problem</b></p>\n                                <p>Imagine the following situation. You are entertaining a special friend by inviting them for dinner. You are making your favorite lasagna dish with ground beef. Your roommate goes to the grocery store and purchases a package of ground beef for you. The label says 80% lean ground beef.</p>\n                                <p>What's your evaluation of the quality of this ground beef?</p>"", 'label_min': 'Very low', 'label_max': 'Very high', 'id': 'a1_2'}, {'stimulus_html': '<p><b>Problem</b></p>\n                                <p>In a recent confidential survey completed by graduating seniors, 35% of those completing the survey stated that they had never cheated during their college career.</p>\n                                <p>Considering the results of the survey, how would you rate the incidence of cheating at your university?</p>', 'label_min': 'Very low', 'label_max': 'Very high', 'id': 'a1_3'}, {'stimulus_html': '<p><b>Problem</b></p>\n                                <p>As R&D manager, one of your project teams has come to you requesting an additional $100,000 in funds for a project you instituted several months ago. The project is already behind schedule and over budget, but the team still believes it can be successfully completed. You currently have $500,000 remaining in your budget unallocated, but which must carry you for the rest of the fiscal year. Lowering the balance by an additional $100,000 might jeopardize flexibility to respond to other opportunities.</p>\n                                <p>Evaluating the situation, you believe there is a fair chance the project will not succeed, in which case the additional funding would be lost; if successful, however, the money would be well spent. You also noticed that of the projects undertaken by this team, 30 of the last 50 have been successful.</p>\n                                <p>What is the likelihood you would fund the request?</p>', 'label_min': 'Very unlikely', 'label_max': 'Very likely', 'id': 'a1_4'}, {'stimulus_html': ""<p><b>Problem</b></p>\n                                <p>Suppose a student got 90% correct in the mid-term exam and 70% correct in the final-term exam, what would be your evaluations of this student's performance?</p>"", 'label_min': 'Very poor', 'label_max': 'Very good', 'id': 'a1_5'}, {'stimulus_html': '<p><b>Problem</b></p>\n                                <p>Imagine that a woman parked illegally. After talking to her, you believe that there is a 20% chance that she did not know she parked illegally.</p>\n                                <p>With this in mind, how much of a fine do you believe this woman deserves?</p>', 'label_min': 'Minimum fine', 'label_max': 'Maximum fine', 'id': 'a1_6'}, {'stimulus_html': '<p><b>Problem</b></p>\n                                <p>Imagine that a new technique has been developed to treat a particular kind of cancer. This technique has a 50% chance of success, and is available at the local hospital.</p>\n                                <p>A member of your immediate family is a patient at the local hospital with this kind of cancer. Would you encourage him or her to undergo treatment using this technique?</p>', 'label_min': 'Definitely no', 'label_max': 'Definitely yes', 'id': 'a1_7'}, {'stimulus_html': '<p><b>Problem</b></p>\n                                <p>Imagine a hospital is treating 32 injured soldiers, who are all expected to lose one leg. There are two doctors that can help the soldiers, but only one can be hired:</p>\n                                <p style=""margin-left: 30px"">If Doctor A is hired, 12 soldiers will lose one leg.</p>\n                                <p style=""margin-left: 30px"">If Doctor B is hired, there is a 63% chance that nobody loses a leg and a 37% chance that all lose a leg.</p>\n                                <p>Which doctor do you recommend?</p>', 'label_min': 'Definitely would choose A', 'label_max': 'Definitely would choose B', 'id': 'rc2_1'}, {'stimulus_html': '<p><b>Problem</b></p>\n                                <p>Imagine that the U.S. is preparing for the outbreak of an unusual disease, which is expected to kill 600 people. Two alternative programs to combat the disease have been proposed. Assume that the exact scientific estimates of the consequences of the programs are as follows:</p>\n                                <p style=""margin-left: 30px"">If Program A is adopted, 400 people will die.</p>\n                                <p style=""margin-left: 30px"">If Program B is adopted, there is a 33% chance that nobody will die, and a 67% chance that 600 people will die.</p>\n                                <p>Which program do you recommend to use?</p>', 'label_min': 'Definitely would choose A', 'label_max': 'Definitely would choose B', 'id': 'rc2_2'}, {'stimulus_html': '<p><b>Problem</b></p>\n                                <p>Imagine that your client has $6,000 invested in the stock market. A downturn in the economy is occurring. You have two investment strategies that you can recommend under the existing circumstances to preserve your client\'s capital.</p>\n                                <p style=""margin-left: 30px"">If strategy A is followed, $4,000 of your client\'s investment will be lost.</p>\n                                <p style=""margin-left: 30px"">If strategy B is followed, there is a 33% chance that the nothing will be lost, and a 67% chance that $6,000 will be lost.</p>\n                                <p>Which of these two strategies would you favor?</p>', 'label_min': 'Definitely would choose A', 'label_max': 'Definitely would choose B', 'id': 'rc2_3'}, {'stimulus_html': '<p><b>Problem</b></p>\n                                <p>Because of changes in tax laws, you may get back as much as $1200 in income tax. Your accountant has been exploring alternative ways to take advantage of this situation. He has developed two plans:</p>\n                                <p style=""margin-left: 30px"">If Plan A is adopted, you will lose $800 of the possible $1200.</p>\n                                <p style=""margin-left: 30px"">If Plan B is adopted, you have a 33% chance of losing none of the money, and a 67% chance of losing all $1200.</p>\n                                <p>Which plan would you use?</p>', 'label_min': 'Definitely would choose A', 'label_max': 'Definitely would choose B', 'id': 'rc2_4'}, {'stimulus_html': '<p><b>Problem</b></p>\n                                <p>Imagine that recent evidence has shown that a pesticide is threatening the lives of 1,200 endangered animals. Two response options have been suggested:</p>\n                                <p style=""margin-left: 30px"">If Option A is used, 600 animals will be lost for sure.</p>\n                                <p style=""margin-left: 30px"">If Option B is used, there is a 75% chance that 400 animals will be lost, and a 25% chance that 1,200 animals will be lost.</p>\n                                <p>Which option do you recommend to use?</p>', 'label_min': 'Definitely would choose A', 'label_max': 'Definitely would choose B', 'id': 'rc2_5'}, {'stimulus_html': '<p><b>Problem</b></p>\n                                <p>Imagine that your doctor tells you that you have a cancer that must be treated. Your choices are as follows:</p>\n                                <p style=""margin-left: 30px"">Surgery: Of 100 people having surgery, 10 die because of the operation, and 66 die by the end of five years.</p>\n                                <p style=""margin-left: 30px"">Radiation therapy: Of 100 people having radiation therapy, none die during the treatment, and 78 die by the end of five years.</p>\n                                <p>Which treatment would you choose?</p>', 'label_min': 'Definitely would choose surgery', 'label_max': 'Definitely would choose radiation', 'id': 'rc2_6'}, {'stimulus_html': '<p><b>Problem</b></p>\n                                <p>Imagine that in one particular state it is projected that 1000 students will drop out of school during the next year. Two programs have been proposed to address this problem, but only one can be implemented. Based on other states\' experiences with the programs, estimates of the outcomes that can be expected from each program can be made. Assume for purposes of this decision that these estimates of the outcomes are accurate and are as follows:</p>\n                                <p style=""margin-left: 30px"">If Program A is adopted, 600 of the 1000 students will drop out of school.</p>\n                                <p style=""margin-left: 30px"">If Program B is adopted, there is a 40% chance that none of the 1000 students will drop out of school and 60% chance that all 1000 students will drop out of school.</p>\n                                <p>Which program would you favor for implementation?</p>', 'label_min': 'Definitely would choose A', 'label_max': 'Definitely would choose B', 'id': 'rc2_7'}, {'stimulus_html': '<p><b>Problem</b></p>\n                                <p>As R&D manager, one of your project teams has come to you requesting an additional $100,000 in funds for a project you instituted several months ago. The project is already behind schedule and over budget, but the team still believes it can be successfully completed. You currently have $500,000 remaining in your budget unallocated, but which must carry you for the rest of the fiscal year. Lowering the balance by an additional $100,000 might jeopardize flexibility to respond to other opportunities.</p>\n                                <p>Evaluating the situation, you believe there is a fair chance the project will not succeed, in which case the additional funding would be lost; if successful, however, the money would be well spent. You also noticed that of the projects undertaken by this team, 20 of the last 50 have been unsuccessful.</p>\n                                <p>What is the likelihood you would fund the request?</p>', 'label_min': 'Very unlikely', 'label_max': 'Very likely', 'id': 'a2_1'}, {'stimulus_html': '<p><b>Problem</b></p>\n                                <p>Imagine that a woman parked illegally. After talking to her, you believe that there is an 80% chance that she knew she parked illegally</p>\n                                <p>With this in mind, how much of a fine do you believe this woman deserves?</p>', 'label_min': 'Minimum fine', 'label_max': 'Maximum fine', 'id': 'a2_2'}, {'stimulus_html': '<p><b>Problem</b></p>\n                                <p>In a recent confidential survey completed by graduating seniors, 65% of those completing the survey stated that they had cheated during their college career.</p>\n                                <p>Considering the results of the survey, how would you rate the incidence of cheating at your university?</p>', 'label_min': 'Very low', 'label_max': 'Very high', 'id': 'a2_3'}, {'stimulus_html': '<p><b>Problem</b></p>\n                                <p>Imagine that a new technique has been developed to treat a particular kind of cancer. This technique has a 50% chance of failure, and is available at the local hospital.</p>\n                                <p>A member of your immediate family is a patient at the local hospital with this kind of cancer. How likely are you to encourage him or her to undergo treatment using this technique?</p>', 'label_min': 'Definitely no', 'label_max': 'Definitely yes', 'id': 'a2_4'}, {'stimulus_html': ""<p><b>Problem</b></p>\n                                <p>Imagine the following situation. You are entertaining a special friend by inviting them for dinner. You are making your favorite lasagna dish with ground beef. Your roommate goes to the grocery store and purchases a package of ground beef for you. The label says 20% fat ground beef.</p>\n                                <p>What's your evaluation of the quality of this ground beef?</p>"", 'label_min': 'Very low', 'label_max': 'Very high', 'id': 'a2_5'}, {'stimulus_html': '<p><b>Problem</b></p>\n                                <p>Imagine that a type of condom has a 5% failure rate. That is, if you have sex with someone who has the AIDS virus, there is a 5% chance that this type of condom will fail to prevent you from being exposed to the AIDS virus.</p>\n                                <p>Should the government allow this type of condom to be advertised as ""an effective method for lowering the risk of AIDS""?</p>', 'label_min': 'Definitely no', 'label_max': 'Definitely yes', 'id': 'a2_6'}, {'stimulus_html': ""<p><b>Problem</b></p>\n                                <p>Suppose a student got 10% incorrect in the mid-term exam and 30% incorrect in the final-term exam, what would be your evaluations of this student's performance?</p>"", 'label_min': 'Very poor', 'label_max': 'Very good', 'id': 'a2_7'}]}","{'SHOW_TASK': True, 'TASK_ORDER_INDEX': 9, 'DR_ITEMS': [{'id': 'dr1', 'correct_answers': ['C'], 'table_numbers': [[5, 4, 2, 1], [5, 5, 3, 3], [5, 2, 4, 4], [1, 5, 5, 3], [4, 5, 1, 1]], 'problem_description': 'Brian selects the TV with the highest number of ratings greater than ""Medium"".', 'question': 'Which <b><u>one</u></b> of the presented TVs would Brian prefer?'}, {'id': 'dr2', 'correct_answers': ['D'], 'table_numbers': [[2, 5, 5, 5], [5, 4, 4, 5], [5, 3, 2, 5], [3, 5, 2, 2], [4, 4, 4, 5]], 'problem_description': 'Sally first selects the TVs with the best Sound Quality. From the selected TVs, she then selects the best on Picture Quality. Then, if there is still more than one left to choose from, she selects the one best on Programming Options.', 'question': 'Which <b><u>one</u></b> of the presented TVs would Sally prefer?'}, {'id': 'dr3', 'correct_answers': ['C'], 'table_numbers': [[3, 1, 2, 5], [5, 5, 3, 2], [4, 3, 3, 3], [5, 5, 5, 4], [2, 5, 4, 4]], 'problem_description': 'Pat doesn\'t want to read through the entire table. He decides to read the table row by row until he finds the very first TV that has no ratings below ""Medium."" He will just choose that TV.', 'question': 'Which <b><u>one</u></b> of the presented TVs would Pat prefer?'}, {'id': 'dr4', 'correct_answers': ['None'], 'table_numbers': [[3, 5, 5, 1], [1, 2, 1, 2], [5, 5, 4, 4], [5, 3, 4, 2], [4, 5, 2, 2]], 'problem_description': 'LaToya only wants a TV that got a ""Very High"" rating on Reliability of Brand.', 'question': 'Which <b><u>one</u></b> of the presented TVs would LaToya prefer?'}, {'id': 'dr5', 'correct_answers': ['A'], 'table_numbers': [[5, 5, 5, 3], [3, 5, 4, 5], [5, 2, 2, 4], [5, 1, 2, 5], [4, 2, 4, 5]], 'problem_description': 'From the TVs with the best available Picture Quality, Tricia selects the TVs with the lowest number of ratings below ""Medium."" If there is more than one TV left to choose from, she then picks the one that has the best rating on ""Reliability of Brand.""', 'question': 'Which <b><u>one</u></b> of the presented TVs would Tricia prefer?'}, {'id': 'dr6', 'correct_answers': ['E'], 'table_numbers': [[3, 1, 5, 2], [1, 2, 1, 2], [5, 4, 3, 1], [4, 2, 3, 3], [4, 4, 2, 4]], 'problem_description': 'Lisa wants the TV with the highest average rating across features.', 'question': 'Which <b><u>one</u></b> of the presented TVs would Lisa prefer?'}, {'id': 'dr7', 'correct_answers': ['E'], 'table_numbers': [[5, 3, 5, 5], [2, 5, 4, 1], [4, 5, 2, 3], [3, 5, 3, 1], [3, 5, 3, 4]], 'problem_description': 'Andy wants the TV with the highest average rating he can get while still making sure to keep the best rating on Sound Quality.', 'question': 'Which <b><u>one</u></b> of the presented TVs would Andy prefer?'}, {'id': 'dr8', 'correct_answers': ['A', 'C'], 'table_numbers': [[5, 4, 5, 3], [5, 4, 1, 2], [3, 3, 5, 5], [5, 5, 1, 2], [3, 5, 1, 3]], 'problem_description': 'Shane wants no TVs that score below ""Medium"" on Picture Quality, no TVs that score below ""Medium"" on Sound Quality, and no TVs that score ""Very Low"" on any other feature.', 'question': 'Which <b><u>two</u></b> of the presented TVs would Shane prefer?'}, {'id': 'dr9', 'correct_answers': ['A', 'D', 'E'], 'table_numbers': [[2, 1, 5, 2], [1, 5, 4, 2], [5, 3, 1, 1], [5, 4, 5, 4], [3, 3, 3, 3]], 'problem_description': 'Tyrone wants a TV that either has a ""Very High"" rating for Programming Options, or one that scores at least “Medium"" on every feature.', 'question': 'Which <b><u>three</u></b> of the presented TVs would Tyrone prefer?'}, {'id': 'dr10', 'correct_answers': ['C', 'D', 'E'], 'table_numbers': [[2, 1, 5, 4], [4, 5, 1, 3], [1, 3, 5, 5], [4, 2, 5, 4], [5, 5, 1, 3]], 'problem_description': ""Julie wants the best Reliability of Brand, but is willing to give up one point on Reliability of Brand for each increase of at least two points in the rating of Picture Quality. She isn't concerned about the other features."", 'question': 'Which <b><u>three</u></b> of the presented TVs would Julie prefer?'}]}","{'SHOW_TASK': True, 'TASK_ORDER_INDEX': 10, 'USE_ANCHOR_VERSION': False, 'TASK_VERSION': 'easy', 'DRAW_WITH_REPLACEMENT': True, 'UNIQUE_TEST_TRIALS_N': 8, 'DRAWS_PER_UNIQUE_TRIAL': 5, 'BALLS_PER_DRAW': 1, 'BALL_SPLITS': [[40, 60], [30, 70]], 'TASK_VERSION_PARAMETERS': {'easy': {'labels': ['Definitely left box', 'Equally likely to be either left or right', 'Definitely right box'], 'slider_initial_text': '50% left, 50% right', 'question': 'What is the probability that this draw was from the left vs right box?'}, 'hard': {'labels': ['Definitely NOT blue', 'Equally likely to be blue as not blue', 'Definitely blue'], 'slider_initial_text': '50% blue', 'question': 'What is the probability that the next drawn ball will be blue?'}}, 'ANCHOR_FORM': {'easy': {'ball_splits': [[40, 60], [40, 60], [40, 60], [40, 60], [40, 60], [40, 60], [40, 60], [40, 60], [40, 60], [40, 60], [30, 70], [30, 70], [30, 70], [30, 70], [30, 70], [30, 70], [30, 70], [30, 70], [30, 70], [30, 70], [30, 70], [30, 70], [30, 70], [30, 70], [30, 70], [40, 60], [40, 60], [40, 60], [40, 60], [40, 60], [40, 60], [40, 60], [40, 60], [40, 60], [40, 60], [30, 70], [30, 70], [30, 70], [30, 70], [30, 70]], 'left_box_majority_color': ['blue', 'blue', 'blue', 'blue', 'blue', 'blue', 'blue', 'blue', 'blue', 'blue', 'blue', 'blue', 'blue', 'blue', 'blue', 'red', 'red', 'red', 'red', 'red', 'blue', 'blue', 'blue', 'blue', 'blue', 'red', 'red', 'red', 'red', 'red', 'red', 'red', 'red', 'red', 'red', 'red', 'red', 'red', 'red', 'red'], 'selected_box_majority_color': ['blue', 'blue', 'blue', 'blue', 'blue', 'red', 'red', 'red', 'red', 'red', 'red', 'red', 'red', 'red', 'red', 'blue', 'blue', 'blue', 'blue', 'blue', 'blue', 'blue', 'blue', 'blue', 'blue', 'red', 'red', 'red', 'red', 'red', 'blue', 'blue', 'blue', 'blue', 'blue', 'red', 'red', 'red', 'red', 'red'], 'draws': [{'current': ['blue'], 'past': []}, {'current': ['blue'], 'past': [['blue']]}, {'current': ['blue'], 'past': [['blue'], ['blue']]}, {'current': ['blue'], 'past': [['blue'], ['blue'], ['blue']]}, {'current': ['blue'], 'past': [['blue'], ['blue'], ['blue'], ['blue']]}, {'current': ['red'], 'past': []}, {'current': ['red'], 'past': [['red']]}, {'current': ['blue'], 'past': [['red'], ['red']]}, {'current': ['red'], 'past': [['red'], ['red'], ['blue']]}, {'current': ['blue'], 'past': [['red'], ['red'], ['blue'], ['red']]}, {'current': ['red'], 'past': []}, {'current': ['red'], 'past': [['red']]}, {'current': ['red'], 'past': [['red'], ['red']]}, {'current': ['red'], 'past': [['red'], ['red'], ['red']]}, {'current': ['red'], 'past': [['red'], ['red'], ['red'], ['red']]}, {'current': ['red'], 'past': []}, {'current': ['red'], 'past': [['red']]}, {'current': ['red'], 'past': [['red'], ['red']]}, {'current': ['blue'], 'past': [['red'], ['red'], ['red']]}, {'current': ['blue'], 'past': [['red'], ['red'], ['red'], ['blue']]}, {'current': ['blue'], 'past': []}, {'current': ['red'], 'past': [['blue']]}, {'current': ['blue'], 'past': [['blue'], ['red']]}, {'current': ['blue'], 'past': [['blue'], ['red'], ['blue']]}, {'current': ['red'], 'past': [['blue'], ['red'], ['blue'], ['blue']]}, {'current': ['red'], 'past': []}, {'current': ['red'], 'past': [['red']]}, {'current': ['blue'], 'past': [['red'], ['red']]}, {'current': ['red'], 'past': [['red'], ['red'], ['blue']]}, {'current': ['red'], 'past': [['red'], ['red'], ['blue'], ['red']]}, {'current': ['red'], 'past': []}, {'current': ['red'], 'past': [['red']]}, {'current': ['blue'], 'past': [['red'], ['red']]}, {'current': ['red'], 'past': [['red'], ['red'], ['blue']]}, {'current': ['red'], 'past': [['red'], ['red'], ['blue'], ['red']]}, {'current': ['red'], 'past': []}, {'current': ['red'], 'past': [['red']]}, {'current': ['blue'], 'past': [['red'], ['red']]}, {'current': ['red'], 'past': [['red'], ['red'], ['blue']]}, {'current': ['red'], 'past': [['red'], ['red'], ['blue'], ['red']]}]}, 'hard': {'ball_splits': [[40, 60], [40, 60], [40, 60], [40, 60], [40, 60], [30, 70], [30, 70], [30, 70], [30, 70], [30, 70], [40, 60], [40, 60], [40, 60], [40, 60], [40, 60], [40, 60], [40, 60], [40, 60], [40, 60], [40, 60], [30, 70], [30, 70], [30, 70], [30, 70], [30, 70], [30, 70], [30, 70], [30, 70], [30, 70], [30, 70], [40, 60], [40, 60], [40, 60], [40, 60], [40, 60], [30, 70], [30, 70], [30, 70], [30, 70], [30, 70]], 'left_box_majority_color': ['blue', 'blue', 'blue', 'blue', 'blue', 'blue', 'blue', 'blue', 'blue', 'blue', 'red', 'red', 'red', 'red', 'red', 'red', 'red', 'red', 'red', 'red', 'blue', 'blue', 'blue', 'blue', 'blue', 'red', 'red', 'red', 'red', 'red', 'red', 'red', 'red', 'red', 'red', 'blue', 'blue', 'blue', 'blue', 'blue'], 'selected_box_majority_color