trial_type,trial_index,time_elapsed,internal_node_id,subject_id,form,wave,session_id,session_restart_id,width,height,webaudio,browser,browser_version,mobile,os,fullscreen,vsync_rate,webcam,microphone,trial_name,view_history,rt,custom_timer_ended_trial,interval_id,stimulus,response,pt_trial,block,trial,optionA_reward,optionB_reward,points_won,option_selected,curr_block_ind,pt_trial_prediction,data_checkpoint,data_checkpoint_ind,experiment_parameters,task_leapfrog,task_time_series,task_shipley_vocab,task_shipley_abstraction,task_denominator_neglect_version_A,task_denominator_neglect_version_B,task_coherence_forecasting,task_admc_rc1,task_impossible_question,task_bayesian_update_easy,task_bayesian_update_hard,task_admc_a2,task_graph_literacy,task_admc_rp,FULLSCREEN_SCREEN_WIDTH,FULLSCREEN_SCREEN_HEIGHT,success,y_axis_values,chart_height,func,direction,noise_condition,datapoints,question_order,shipley_vocabulary_score,shipley_abstraction_score,task_version,choice_type,left_lottery_display_type,right_lottery_display_type,left_lottery_type,right_lottery_type,left_lottery_gold_prop,right_lottery_gold_prop,left_lottery_total_coins,right_lottery_total_coins,left_lottery_gold_coins,right_lottery_gold_coins,left_lottery_silver_coins,right_lottery_silver_coins,selected_lottery,coin_drawn,moved_sliders,cfs_id,cfs_response,slider_start,slider_moved,admc_id,admc_response,response_choice,response_slider,id,question_text,answer_1,answer_2,correct_answer,aig_version,correct,unique_trial,unique_trial_draw_number,ball_split,left_box_majority_color,right_box_majority_color,selected_box_majority_color,current_draw,past_draws,version,score,Q1,Q2,Q3,Q4,Q5,Q6,Q7,Q8,Q9,Q10,Q11,Q13
call-function,0,2,0.0-0.0,CRGZ4TavntGH5E9LSBCX,223301,3,gY6qXF9uvTh4pZ4W0xiBwAUrnA,Bfv9y7h43Ts4FuNAQ82peNGlrb,,,,,,,,,,,,,,,,,,,,,,,,,,,,,,,,,,,,,,,,,,,,,,,,,,,,,,,,,,,,,,,,,,,,,,,,,,,,,,,,,,,,,,,,,,,,,,,,,,,,,,,,,,,,,,
browser-check,1,1060,0.0-1.0,CRGZ4TavntGH5E9LSBCX,223301,3,gY6qXF9uvTh4pZ4W0xiBwAUrnA,Bfv9y7h43Ts4FuNAQ82peNGlrb,1536.0,695.0,True,chrome,122.0.0,False,Windows 10,True,57.3,True,True,browser_check,,,,,,,,,,,,,,,,,,,,,,,,,,,,,,,,,,,,,,,,,,,,,,,,,,,,,,,,,,,,,,,,,,,,,,,,,,,,,,,,,,,,,,,,,,,,,,,,,,
call-function,2,1061,0.0-2.0,CRGZ4TavntGH5E9LSBCX,223301,3,gY6qXF9uvTh4pZ4W0xiBwAUrnA,Bfv9y7h43Ts4FuNAQ82peNGlrb,,,,,,,,,,,,,,,,,,,,,,,,,,,,,,,,,,,,,,,,,,,,,,,,,,,,,,,,,,,,,,,,,,,,,,,,,,,,,,,,,,,,,,,,,,,,,,,,,,,,,,,,,,,,,,
html-keyboard-response,3,1062,0.0-3.0-0.0-0.0,CRGZ4TavntGH5E9LSBCX,223301,3,gY6qXF9uvTh4pZ4W0xiBwAUrnA,Bfv9y7h43Ts4FuNAQ82peNGlrb,,,,,,,,,,,,,,,,,,,,,,,,,,,,,,,,,,,,,,,,,,,,,,,,,,,,,,,,,,,,,,,,,,,,,,,,,,,,,,,,,,,,,,,,,,,,,,,,,,,,,,,,,,,,,,
call-function,4,1215,0.0-3.0-1.0,CRGZ4TavntGH5E9LSBCX,223301,3,gY6qXF9uvTh4pZ4W0xiBwAUrnA,Bfv9y7h43Ts4FuNAQ82peNGlrb,,,,,,,,,,,,,,,,,,,,,,,,,,,,,,,,,,,,,,,,,,,,,,,,,,,,,,,,,,,,,,,,,,,,,,,,,,,,,,,,,,,,,,,,,,,,,,,,,,,,,,,,,,,,,,
instructions,5,136882,0.0-3.0-2.0,CRGZ4TavntGH5E9LSBCX,223301,3,gY6qXF9uvTh4pZ4W0xiBwAUrnA,Bfv9y7h43Ts4FuNAQ82peNGlrb,,,,,,,,,,,,leapfrog_instructions,"[{'page_index': 0, 'viewing_time': 82950}, {'page_index': 1, 'viewing_time': 52701}]",135651.0,False,23.0,,,,,,,,,,,,,,,,,,,,,,,,,,,,,,,,,,,,,,,,,,,,,,,,,,,,,,,,,,,,,,,,,,,,,,,,,,,,,,,,,,,,,,,,,,,,,,
call-function,6,136886,0.0-3.0-3.0,CRGZ4TavntGH5E9LSBCX,223301,3,gY6qXF9uvTh4pZ4W0xiBwAUrnA,Bfv9y7h43Ts4FuNAQ82peNGlrb,,,,,,,,,,,,,,,,,,,,,,,,,,,,,,,,,,,,,,,,,,,,,,,,,,,,,,,,,,,,,,,,,,,,,,,,,,,,,,,,,,,,,,,,,,,,,,,,,,,,,,,,,,,,,,
instructions,7,158698,0.0-3.0-4.0,CRGZ4TavntGH5E9LSBCX,223301,3,gY6qXF9uvTh4pZ4W0xiBwAUrnA,Bfv9y7h43Ts4FuNAQ82peNGlrb,,,,,,,,,,,,leapfrog_practice_trials_instructions,"[{'page_index': 0, 'viewing_time': 21812}]",21812.0,False,36.0,,,,,,,,,,,,,,,,,,,,,,,,,,,,,,,,,,,,,,,,,,,,,,,,,,,,,,,,,,,,,,,,,,,,,,,,,,,,,,,,,,,,,,,,,,,,,,
html-keyboard-response,8,160208,0.0-3.0-5.0-0.0-0.0,CRGZ4TavntGH5E9LSBCX,223301,3,gY6qXF9uvTh4pZ4W0xiBwAUrnA,Bfv9y7h43Ts4FuNAQ82peNGlrb,,,,,,,,,,,,leapfrog_pt_trial,,,,,"<div style=""font-size:3em;"">CHOOSE</div>
                        <div id=""leapfrog_options_container"">
                            <div id=""option_A"">OPTION A<br><span>(left arrow)</span></div>
                            <div id=""option_B"">OPTION B<br><span>(right arrow)</span></div>
                        </div><div style=""display: flex; justify-content: space-around; font-size: 1em; margin-top: 1em; font-style: italic"">
                                <div>10 points</div>
                                <div>20 points</div>
                            </div>",,True,0.0,0.0,10.0,20.0,,,,,,,,,,,,,,,,,,,,,,,,,,,,,,,,,,,,,,,,,,,,,,,,,,,,,,,,,,,,,,,,,,,,,,,,,,,,,,,,,,,,,,,
html-keyboard-response,9,161223,0.0-3.0-5.0-0.0-1.0,CRGZ4TavntGH5E9LSBCX,223301,3,gY6qXF9uvTh4pZ4W0xiBwAUrnA,Bfv9y7h43Ts4FuNAQ82peNGlrb,,,,,,,,,,,,leapfrog_trial_feedback,,,,,"<p style=""font-size: 3em; color: red;"">X<br><br>TOO SLOW</p>",,,,,,,,,,,,,,,,,,,,,,,,,,,,,,,,,,,,,,,,,,,,,,,,,,,,,,,,,,,,,,,,,,,,,,,,,,,,,,,,,,,,,,,,,,,,,
html-keyboard-response,10,162023,0.0-3.0-5.0-0.0-0.1,CRGZ4TavntGH5E9LSBCX,223301,3,gY6qXF9uvTh4pZ4W0xiBwAUrnA,Bfv9y7h43Ts4FuNAQ82peNGlrb,,,,,,,,,,,,leapfrog_pt_trial,,799.0,,,"<div style=""font-size:3em;"">CHOOSE</div>
                        <div id=""leapfrog_options_container"">
                            <div id=""option_A"">OPTION A<br><span>(left arrow)</span></div>
                            <div id=""option_B"">OPTION B<br><span>(right arrow)</span></div>
                        </div><div style=""display: flex; justify-content: space-around; font-size: 1em; margin-top: 1em; font-style: italic"">
                                <div>10 points</div>
                                <div>20 points</div>
                            </div>",arrowright,True,0.0,1.0,10.0,20.0,20.0,B,,,,,,,,,,,,,,,,,,,,,,,,,,,,,,,,,,,,,,,,,,,,,,,,,,,,,,,,,,,,,,,,,,,,,,,,,,,,,,,,,,,,,
html-keyboard-response,11,163036,0.0-3.0-5.0-0.0-1.1,CRGZ4TavntGH5E9LSBCX,223301,3,gY6qXF9uvTh4pZ4W0xiBwAUrnA,Bfv9y7h43Ts4FuNAQ82peNGlrb,,,,,,,,,,,,leapfrog_trial_feedback,,,,,"<p style=""font-size: 3em; color: green;"">You won <b>20</b> points.</p>",,,,,,,,,,,,,,,,,,,,,,,,,,,,,,,,,,,,,,,,,,,,,,,,,,,,,,,,,,,,,,,,,,,,,,,,,,,,,,,,,,,,,,,,,,,,,
html-keyboard-response,12,163603,0.0-3.0-5.0-0.0-0.2,CRGZ4TavntGH5E9LSBCX,223301,3,gY6qXF9uvTh4pZ4W0xiBwAUrnA,Bfv9y7h43Ts4FuNAQ82peNGlrb,,,,,,,,,,,,leapfrog_pt_trial,,567.0,,,"<div style=""font-size:3em;"">CHOOSE</div>
                        <div id=""leapfrog_options_container"">
                            <div id=""option_A"">OPTION A<br><span>(left arrow)</span></div>
                            <div id=""option_B"">OPTION B<br><span>(right arrow)</span></div>
                        </div><div style=""display: flex; justify-content: space-around; font-size: 1em; margin-top: 1em; font-style: italic"">
                                <div>10 points</div>
                                <div>20 points</div>
                            </div>",arrowright,True,0.0,2.0,10.0,20.0,20.0,B,,,,,,,,,,,,,,,,,,,,,,,,,,,,,,,,,,,,,,,,,,,,,,,,,,,,,,,,,,,,,,,,,,,,,,,,,,,,,,,,,,,,,
html-keyboard-response,13,164605,0.0-3.0-5.0-0.0-1.2,CRGZ4TavntGH5E9LSBCX,223301,3,gY6qXF9uvTh4pZ4W0xiBwAUrnA,Bfv9y7h43Ts4FuNAQ82peNGlrb,,,,,,,,,,,,leapfrog_trial_feedback,,,,,"<p style=""font-size: 3em; color: green;"">You won <b>20</b> points.</p>",,,,,,,,,,,,,,,,,,,,,,,,,,,,,,,,,,,,,,,,,,,,,,,,,,,,,,,,,,,,,,,,,,,,,,,,,,,,,,,,,,,,,,,,,,,,,
html-keyboard-response,14,165111,0.0-3.0-5.0-0.0-0.3,CRGZ4TavntGH5E9LSBCX,223301,3,gY6qXF9uvTh4pZ4W0xiBwAUrnA,Bfv9y7h43Ts4FuNAQ82peNGlrb,,,,,,,,,,,,leapfrog_pt_trial,,505.0,,,"<div style=""font-size:3em;"">CHOOSE</div>
                        <div id=""leapfrog_options_container"">
                            <div id=""option_A"">OPTION A<br><span>(left arrow)</span></div>
                            <div id=""option_B"">OPTION B<br><span>(right arrow)</span></div>
                        </div><div style=""display: flex; justify-content: space-around; font-size: 1em; margin-top: 1em; font-style: italic"">
                                <div>10 points</div>
                                <div>20 points</div>
                            </div>",arrowright,True,0.0,3.0,10.0,20.0,20.0,B,,,,,,,,,,,,,,,,,,,,,,,,,,,,,,,,,,,,,,,,,,,,,,,,,,,,,,,,,,,,,,,,,,,,,,,,,,,,,,,,,,,,,
html-keyboard-response,15,166123,0.0-3.0-5.0-0.0-1.3,CRGZ4TavntGH5E9LSBCX,223301,3,gY6qXF9uvTh4pZ4W0xiBwAUrnA,Bfv9y7h43Ts4FuNAQ82peNGlrb,,,,,,,,,,,,leapfrog_trial_feedback,,,,,"<p style=""font-size: 3em; color: green;"">You won <b>20</b> points.</p>",,,,,,,,,,,,,,,,,,,,,,,,,,,,,,,,,,,,,,,,,,,,,,,,,,,,,,,,,,,,,,,,,,,,,,,,,,,,,,,,,,,,,,,,,,,,,
html-keyboard-response,16,166559,0.0-3.0-5.0-0.0-0.4,CRGZ4TavntGH5E9LSBCX,223301,3,gY6qXF9uvTh4pZ4W0xiBwAUrnA,Bfv9y7h43Ts4FuNAQ82peNGlrb,,,,,,,,,,,,leapfrog_pt_trial,,435.0,,,"<div style=""font-size:3em;"">CHOOSE</div>
                        <div id=""leapfrog_options_container"">
                            <div id=""option_A"">OPTION A<br><span>(left arrow)</span></div>
                            <div id=""option_B"">OPTION B<br><span>(right arrow)</span></div>
                        </div><div style=""display: flex; justify-content: space-around; font-size: 1em; margin-top: 1em; font-style: italic"">
                                <div>30 points</div>
                                <div>20 points</div>
                            </div>",arrowright,True,0.0,4.0,30.0,20.0,20.0,B,,,,,,,,,,,,,,,,,,,,,,,,,,,,,,,,,,,,,,,,,,,,,,,,,,,,,,,,,,,,,,,,,,,,,,,,,,,,,,,,,,,,,
html-keyboard-response,17,167568,0.0-3.0-5.0-0.0-1.4,CRGZ4TavntGH5E9LSBCX,223301,3,gY6qXF9uvTh4pZ4W0xiBwAUrnA,Bfv9y7h43Ts4FuNAQ82peNGlrb,,,,,,,,,,,,leapfrog_trial_feedback,,,,,"<p style=""font-size: 3em; color: green;"">You won <b>20</b> points.</p>",,,,,,,,,,,,,,,,,,,,,,,,,,,,,,,,,,,,,,,,,,,,,,,,,,,,,,,,,,,,,,,,,,,,,,,,,,,,,,,,,,,,,,,,,,,,,
html-keyboard-response,18,168074,0.0-3.0-5.0-0.0-0.5,CRGZ4TavntGH5E9LSBCX,223301,3,gY6qXF9uvTh4pZ4W0xiBwAUrnA,Bfv9y7h43Ts4FuNAQ82peNGlrb,,,,,,,,,,,,leapfrog_pt_trial,,506.0,,,"<div style=""font-size:3em;"">CHOOSE</div>
                        <div id=""leapfrog_options_container"">
                            <div id=""option_A"">OPTION A<br><span>(left arrow)</span></div>
                            <div id=""option_B"">OPTION B<br><span>(right arrow)</span></div>
                        </div><div style=""display: flex; justify-content: space-around; font-size: 1em; margin-top: 1em; font-style: italic"">
                                <div>30 points</div>
                                <div>20 points</div>
                            </div>",arrowleft,True,0.0,5.0,30.0,20.0,30.0,A,,,,,,,,,,,,,,,,,,,,,,,,,,,,,,,,,,,,,,,,,,,,,,,,,,,,,,,,,,,,,,,,,,,,,,,,,,,,,,,,,,,,,
html-keyboard-response,19,169087,0.0-3.0-5.0-0.0-1.5,CRGZ4TavntGH5E9LSBCX,223301,3,gY6qXF9uvTh4pZ4W0xiBwAUrnA,Bfv9y7h43Ts4FuNAQ82peNGlrb,,,,,,,,,,,,leapfrog_trial_feedback,,,,,"<p style=""font-size: 3em; color: green;"">You won <b>30</b> points.</p>",,,,,,,,,,,,,,,,,,,,,,,,,,,,,,,,,,,,,,,,,,,,,,,,,,,,,,,,,,,,,,,,,,,,,,,,,,,,,,,,,,,,,,,,,,,,,
html-keyboard-response,20,169543,0.0-3.0-5.0-0.0-0.6,CRGZ4TavntGH5E9LSBCX,223301,3,gY6qXF9uvTh4pZ4W0xiBwAUrnA,Bfv9y7h43Ts4FuNAQ82peNGlrb,,,,,,,,,,,,leapfrog_pt_trial,,456.0,,,"<div style=""font-size:3em;"">CHOOSE</div>
                        <div id=""leapfrog_options_container"">
                            <div id=""option_A"">OPTION A<br><span>(left arrow)</span></div>
                            <div id=""option_B"">OPTION B<br><span>(right arrow)</span></div>
                        </div><div style=""display: flex; justify-content: space-around; font-size: 1em; margin-top: 1em; font-style: italic"">
                                <div>30 points</div>
                                <div>20 points</div>
                            </div>",arrowleft,True,0.0,6.0,30.0,20.0,30.0,A,,,,,,,,,,,,,,,,,,,,,,,,,,,,,,,,,,,,,,,,,,,,,,,,,,,,,,,,,,,,,,,,,,,,,,,,,,,,,,,,,,,,,
html-keyboard-response,21,170557,0.0-3.0-5.0-0.0-1.6,CRGZ4TavntGH5E9LSBCX,223301,3,gY6qXF9uvTh4pZ4W0xiBwAUrnA,Bfv9y7h43Ts4FuNAQ82peNGlrb,,,,,,,,,,,,leapfrog_trial_feedback,,,,,"<p style=""font-size: 3em; color: green;"">You won <b>30</b> points.</p>",,,,,,,,,,,,,,,,,,,,,,,,,,,,,,,,,,,,,,,,,,,,,,,,,,,,,,,,,,,,,,,,,,,,,,,,,,,,,,,,,,,,,,,,,,,,,
html-keyboard-response,22,171054,0.0-3.0-5.0-0.0-0.7,CRGZ4TavntGH5E9LSBCX,223301,3,gY6qXF9uvTh4pZ4W0xiBwAUrnA,Bfv9y7h43Ts4FuNAQ82peNGlrb,,,,,,,,,,,,leapfrog_pt_trial,,497.0,,,"<div style=""font-size:3em;"">CHOOSE</div>
                        <div id=""leapfrog_options_container"">
                            <div id=""option_A"">OPTION A<br><span>(left arrow)</span></div>
                            <div id=""option_B"">OPTION B<br><span>(right arrow)</span></div>
                        </div><div style=""display: flex; justify-content: space-around; font-size: 1em; margin-top: 1em; font-style: italic"">
                                <div>30 points</div>
                                <div>20 points</div>
                            </div>",arrowleft,True,0.0,7.0,30.0,20.0,30.0,A,,,,,,,,,,,,,,,,,,,,,,,,,,,,,,,,,,,,,,,,,,,,,,,,,,,,,,,,,,,,,,,,,,,,,,,,,,,,,,,,,,,,,
html-keyboard-response,23,172058,0.0-3.0-5.0-0.0-1.7,CRGZ4TavntGH5E9LSBCX,223301,3,gY6qXF9uvTh4pZ4W0xiBwAUrnA,Bfv9y7h43Ts4FuNAQ82peNGlrb,,,,,,,,,,,,leapfrog_trial_feedback,,,,,"<p style=""font-size: 3em; color: green;"">You won <b>30</b> points.</p>",,,,,,,,,,,,,,,,,,,,,,,,,,,,,,,,,,,,,,,,,,,,,,,,,,,,,,,,,,,,,,,,,,,,,,,,,,,,,,,,,,,,,,,,,,,,,
html-keyboard-response,24,172585,0.0-3.0-5.0-0.0-0.8,CRGZ4TavntGH5E9LSBCX,223301,3,gY6qXF9uvTh4pZ4W0xiBwAUrnA,Bfv9y7h43Ts4FuNAQ82peNGlrb,,,,,,,,,,,,leapfrog_pt_trial,,528.0,,,"<div style=""font-size:3em;"">CHOOSE</div>
                        <div id=""leapfrog_options_container"">
                            <div id=""option_A"">OPTION A<br><span>(left arrow)</span></div>
                            <div id=""option_B"">OPTION B<br><span>(right arrow)</span></div>
                        </div><div style=""display: flex; justify-content: space-around; font-size: 1em; margin-top: 1em; font-style: italic"">
                                <div>30 points</div>
                                <div>20 points</div>
                            </div>",arrowleft,True,0.0,8.0,30.0,20.0,30.0,A,,,,,,,,,,,,,,,,,,,,,,,,,,,,,,,,,,,,,,,,,,,,,,,,,,,,,,,,,,,,,,,,,,,,,,,,,,,,,,,,,,,,,
html-keyboard-response,25,173586,0.0-3.0-5.0-0.0-1.8,CRGZ4TavntGH5E9LSBCX,223301,3,gY6qXF9uvTh4pZ4W0xiBwAUrnA,Bfv9y7h43Ts4FuNAQ82peNGlrb,,,,,,,,,,,,leapfrog_trial_feedback,,,,,"<p style=""font-size: 3em; color: green;"">You won <b>30</b> points.</p>",,,,,,,,,,,,,,,,,,,,,,,,,,,,,,,,,,,,,,,,,,,,,,,,,,,,,,,,,,,,,,,,,,,,,,,,,,,,,,,,,,,,,,,,,,,,,
html-keyboard-response,26,174029,0.0-3.0-5.0-0.0-0.9,CRGZ4TavntGH5E9LSBCX,223301,3,gY6qXF9uvTh4pZ4W0xiBwAUrnA,Bfv9y7h43Ts4FuNAQ82peNGlrb,,,,,,,,,,,,leapfrog_pt_trial,,442.0,,,"<div style=""font-size:3em;"">CHOOSE</div>
                        <div id=""leapfrog_options_container"">
                            <div id=""option_A"">OPTION A<br><span>(left arrow)</span></div>
                            <div id=""option_B"">OPTION B<br><span>(right arrow)</span></div>
                        </div><div style=""display: flex; justify-content: space-around; font-size: 1em; margin-top: 1em; font-style: italic"">
                                <div>30 points</div>
                                <div>20 points</div>
                            </div>",arrowleft,True,0.0,9.0,30.0,20.0,30.0,A,,,,,,,,,,,,,,,,,,,,,,,,,,,,,,,,,,,,,,,,,,,,,,,,,,,,,,,,,,,,,,,,,,,,,,,,,,,,,,,,,,,,,
html-keyboard-response,27,175032,0.0-3.0-5.0-0.0-1.9,CRGZ4TavntGH5E9LSBCX,223301,3,gY6qXF9uvTh4pZ4W0xiBwAUrnA,Bfv9y7h43Ts4FuNAQ82peNGlrb,,,,,,,,,,,,leapfrog_trial_feedback,,,,,"<p style=""font-size: 3em; color: green;"">You won <b>30</b> points.</p>",,,,,,,,,,,,,,,,,,,,,,,,,,,,,,,,,,,,,,,,,,,,,,,,,,,,,,,,,,,,,,,,,,,,,,,,,,,,,,,,,,,,,,,,,,,,,
html-keyboard-response,28,175420,0.0-3.0-5.0-0.0-0.10,CRGZ4TavntGH5E9LSBCX,223301,3,gY6qXF9uvTh4pZ4W0xiBwAUrnA,Bfv9y7h43Ts4FuNAQ82peNGlrb,,,,,,,,,,,,leapfrog_pt_trial,,388.0,,,"<div style=""font-size:3em;"">CHOOSE</div>
                        <div id=""leapfrog_options_container"">
                            <div id=""option_A"">OPTION A<br><span>(left arrow)</span></div>
                            <div id=""option_B"">OPTION B<br><span>(right arrow)</span></div>
                        </div><div style=""display: flex; justify-content: space-around; font-size: 1em; margin-top: 1em; font-style: italic"">
                                <div>30 points</div>
                                <div>40 points</div>
                            </div>",arrowleft,True,0.0,10.0,30.0,40.0,30.0,A,,,,,,,,,,,,,,,,,,,,,,,,,,,,,,,,,,,,,,,,,,,,,,,,,,,,,,,,,,,,,,,,,,,,,,,,,,,,,,,,,,,,,
html-keyboard-response,29,176426,0.0-3.0-5.0-0.0-1.10,CRGZ4TavntGH5E9LSBCX,223301,3,gY6qXF9uvTh4pZ4W0xiBwAUrnA,Bfv9y7h43Ts4FuNAQ82peNGlrb,,,,,,,,,,,,leapfrog_trial_feedback,,,,,"<p style=""font-size: 3em; color: green;"">You won <b>30</b> points.</p>",,,,,,,,,,,,,,,,,,,,,,,,,,,,,,,,,,,,,,,,,,,,,,,,,,,,,,,,,,,,,,,,,,,,,,,,,,,,,,,,,,,,,,,,,,,,,
html-keyboard-response,30,176853,0.0-3.0-5.0-0.0-0.11,CRGZ4TavntGH5E9LSBCX,223301,3,gY6qXF9uvTh4pZ4W0xiBwAUrnA,Bfv9y7h43Ts4FuNAQ82peNGlrb,,,,,,,,,,,,leapfrog_pt_trial,,427.0,,,"<div style=""font-size:3em;"">CHOOSE</div>
                        <div id=""leapfrog_options_container"">
                            <div id=""option_A"">OPTION A<br><span>(left arrow)</span></div>
                            <div id=""option_B"">OPTION B<br><span>(right arrow)</span></div>
                        </div><div style=""display: flex; justify-content: space-around; font-size: 1em; margin-top: 1em; font-style: italic"">
                                <div>30 points</div>
                                <div>40 points</div>
                            </div>",arrowright,True,0.0,11.0,30.0,40.0,40.0,B,,,,,,,,,,,,,,,,,,,,,,,,,,,,,,,,,,,,,,,,,,,,,,,,,,,,,,,,,,,,,,,,,,,,,,,,,,,,,,,,,,,,,
html-keyboard-response,31,177865,0.0-3.0-5.0-0.0-1.11,CRGZ4TavntGH5E9LSBCX,223301,3,gY6qXF9uvTh4pZ4W0xiBwAUrnA,Bfv9y7h43Ts4FuNAQ82peNGlrb,,,,,,,,,,,,leapfrog_trial_feedback,,,,,"<p style=""font-size: 3em; color: green;"">You won <b>40</b> points.</p>",,,,,,,,,,,,,,,,,,,,,,,,,,,,,,,,,,,,,,,,,,,,,,,,,,,,,,,,,,,,,,,,,,,,,,,,,,,,,,,,,,,,,,,,,,,,,
html-keyboard-response,32,178465,0.0-3.0-5.0-0.0-0.12,CRGZ4TavntGH5E9LSBCX,223301,3,gY6qXF9uvTh4pZ4W0xiBwAUrnA,Bfv9y7h43Ts4FuNAQ82peNGlrb,,,,,,,,,,,,leapfrog_pt_trial,,600.0,,,"<div style=""font-size:3em;"">CHOOSE</div>
                        <div id=""leapfrog_options_container"">
                            <div id=""option_A"">OPTION A<br><span>(left arrow)</span></div>
                            <div id=""option_B"">OPTION B<br><span>(right arrow)</span></div>
                        </div><div style=""display: flex; justify-content: space-around; font-size: 1em; margin-top: 1em; font-style: italic"">
                                <div>30 points</div>
                                <div>40 points</div>
                            </div>",arrowright,True,0.0,12.0,30.0,40.0,40.0,B,,,,,,,,,,,,,,,,,,,,,,,,,,,,,,,,,,,,,,,,,,,,,,,,,,,,,,,,,,,,,,,,,,,,,,,,,,,,,,,,,,,,,
html-keyboard-response,33,179478,0.0-3.0-5.0-0.0-1.12,CRGZ4TavntGH5E9LSBCX,223301,3,gY6qXF9uvTh4pZ4W0xiBwAUrnA,Bfv9y7h43Ts4FuNAQ82peNGlrb,,,,,,,,,,,,leapfrog_trial_feedback,,,,,"<p style=""font-size: 3em; color: green;"">You won <b>40</b> points.</p>",,,,,,,,,,,,,,,,,,,,,,,,,,,,,,,,,,,,,,,,,,,,,,,,,,,,,,,,,,,,,,,,,,,,,,,,,,,,,,,,,,,,,,,,,,,,,
html-keyboard-response,34,179953,0.0-3.0-5.0-0.0-0.13,CRGZ4TavntGH5E9LSBCX,223301,3,gY6qXF9uvTh4pZ4W0xiBwAUrnA,Bfv9y7h43Ts4FuNAQ82peNGlrb,,,,,,,,,,,,leapfrog_pt_trial,,474.0,,,"<div style=""font-size:3em;"">CHOOSE</div>
                        <div id=""leapfrog_options_container"">
                            <div id=""option_A"">OPTION A<br><span>(left arrow)</span></div>
                            <div id=""option_B"">OPTION B<br><span>(right arrow)</span></div>
                        </div><div style=""display: flex; justify-content: space-around; font-size: 1em; margin-top: 1em; font-style: italic"">
                                <div>30 points</div>
                                <div>40 points</div>
                            </div>",arrowright,True,0.0,13.0,30.0,40.0,40.0,B,,,,,,,,,,,,,,,,,,,,,,,,,,,,,,,,,,,,,,,,,,,,,,,,,,,,,,,,,,,,,,,,,,,,,,,,,,,,,,,,,,,,,
html-keyboard-response,35,180964,0.0-3.0-5.0-0.0-1.13,CRGZ4TavntGH5E9LSBCX,223301,3,gY6qXF9uvTh4pZ4W0xiBwAUrnA,Bfv9y7h43Ts4FuNAQ82peNGlrb,,,,,,,,,,,,leapfrog_trial_feedback,,,,,"<p style=""font-size: 3em; color: green;"">You won <b>40</b> points.</p>",,,,,,,,,,,,,,,,,,,,,,,,,,,,,,,,,,,,,,,,,,,,,,,,,,,,,,,,,,,,,,,,,,,,,,,,,,,,,,,,,,,,,,,,,,,,,
html-keyboard-response,36,181453,0.0-3.0-5.0-0.0-0.14,CRGZ4TavntGH5E9LSBCX,223301,3,gY6qXF9uvTh4pZ4W0xiBwAUrnA,Bfv9y7h43Ts4FuNAQ82peNGlrb,,,,,,,,,,,,leapfrog_pt_trial,,488.0,,,"<div style=""font-size:3em;"">CHOOSE</div>
                        <div id=""leapfrog_options_container"">
                            <div id=""option_A"">OPTION A<br><span>(left arrow)</span></div>
                            <div id=""option_B"">OPTION B<br><span>(right arrow)</span></div>
                        </div><div style=""display: flex; justify-content: space-around; font-size: 1em; margin-top: 1em; font-style: italic"">
                                <div>30 points</div>
                                <div>40 points</div>
                            </div>",arrowright,True,0.0,14.0,30.0,40.0,40.0,B,,,,,,,,,,,,,,,,,,,,,,,,,,,,,,,,,,,,,,,,,,,,,,,,,,,,,,,,,,,,,,,,,,,,,,,,,,,,,,,,,,,,,
html-keyboard-response,37,182458,0.0-3.0-5.0-0.0-1.14,CRGZ4TavntGH5E9LSBCX,223301,3,gY6qXF9uvTh4pZ4W0xiBwAUrnA,Bfv9y7h43Ts4FuNAQ82peNGlrb,,,,,,,,,,,,leapfrog_trial_feedback,,,,,"<p style=""font-size: 3em; color: green;"">You won <b>40</b> points.</p>",,,,,,,,,,,,,,,,,,,,,,,,,,,,,,,,,,,,,,,,,,,,,,,,,,,,,,,,,,,,,,,,,,,,,,,,,,,,,,,,,,,,,,,,,,,,,
html-keyboard-response,38,182841,0.0-3.0-5.0-0.0-0.15,CRGZ4TavntGH5E9LSBCX,223301,3,gY6qXF9uvTh4pZ4W0xiBwAUrnA,Bfv9y7h43Ts4FuNAQ82peNGlrb,,,,,,,,,,,,leapfrog_pt_trial,,383.0,,,"<div style=""font-size:3em;"">CHOOSE</div>
                        <div id=""leapfrog_options_container"">
                            <div id=""option_A"">OPTION A<br><span>(left arrow)</span></div>
                            <div id=""option_B"">OPTION B<br><span>(right arrow)</span></div>
                        </div><div style=""display: flex; justify-content: space-around; font-size: 1em; margin-top: 1em; font-style: italic"">
                                <div>30 points</div>
                                <div>40 points</div>
                            </div>",arrowright,True,0.0,15.0,30.0,40.0,40.0,B,,,,,,,,,,,,,,,,,,,,,,,,,,,,,,,,,,,,,,,,,,,,,,,,,,,,,,,,,,,,,,,,,,,,,,,,,,,,,,,,,,,,,
html-keyboard-response,39,183850,0.0-3.0-5.0-0.0-1.15,CRGZ4TavntGH5E9LSBCX,223301,3,gY6qXF9uvTh4pZ4W0xiBwAUrnA,Bfv9y7h43Ts4FuNAQ82peNGlrb,,,,,,,,,,,,leapfrog_trial_feedback,,,,,"<p style=""font-size: 3em; color: green;"">You won <b>40</b> points.</p>",,,,,,,,,,,,,,,,,,,,,,,,,,,,,,,,,,,,,,,,,,,,,,,,,,,,,,,,,,,,,,,,,,,,,,,,,,,,,,,,,,,,,,,,,,,,,
html-keyboard-response,40,184305,0.0-3.0-5.0-0.0-0.16,CRGZ4TavntGH5E9LSBCX,223301,3,gY6qXF9uvTh4pZ4W0xiBwAUrnA,Bfv9y7h43Ts4FuNAQ82peNGlrb,,,,,,,,,,,,leapfrog_pt_trial,,455.0,,,"<div style=""font-size:3em;"">CHOOSE</div>
                        <div id=""leapfrog_options_container"">
                            <div id=""option_A"">OPTION A<br><span>(left arrow)</span></div>
                            <div id=""option_B"">OPTION B<br><span>(right arrow)</span></div>
                        </div><div style=""display: flex; justify-content: space-around; font-size: 1em; margin-top: 1em; font-style: italic"">
                                <div>30 points</div>
                                <div>40 points</div>
                            </div>",arrowright,True,0.0,16.0,30.0,40.0,40.0,B,,,,,,,,,,,,,,,,,,,,,,,,,,,,,,,,,,,,,,,,,,,,,,,,,,,,,,,,,,,,,,,,,,,,,,,,,,,,,,,,,,,,,
html-keyboard-response,41,185321,0.0-3.0-5.0-0.0-1.16,CRGZ4TavntGH5E9LSBCX,223301,3,gY6qXF9uvTh4pZ4W0xiBwAUrnA,Bfv9y7h43Ts4FuNAQ82peNGlrb,,,,,,,,,,,,leapfrog_trial_feedback,,,,,"<p style=""font-size: 3em; color: green;"">You won <b>40</b> points.</p>",,,,,,,,,,,,,,,,,,,,,,,,,,,,,,,,,,,,,,,,,,,,,,,,,,,,,,,,,,,,,,,,,,,,,,,,,,,,,,,,,,,,,,,,,,,,,
html-keyboard-response,42,185684,0.0-3.0-5.0-0.0-0.17,CRGZ4TavntGH5E9LSBCX,223301,3,gY6qXF9uvTh4pZ4W0xiBwAUrnA,Bfv9y7h43Ts4FuNAQ82peNGlrb,,,,,,,,,,,,leapfrog_pt_trial,,363.0,,,"<div style=""font-size:3em;"">CHOOSE</div>
                        <div id=""leapfrog_options_container"">
                            <div id=""option_A"">OPTION A<br><span>(left arrow)</span></div>
                            <div id=""option_B"">OPTION B<br><span>(right arrow)</span></div>
                        </div><div style=""display: flex; justify-content: space-around; font-size: 1em; margin-top: 1em; font-style: italic"">
                                <div>30 points</div>
                                <div>40 points</div>
                            </div>",arrowright,True,0.0,17.0,30.0,40.0,40.0,B,,,,,,,,,,,,,,,,,,,,,,,,,,,,,,,,,,,,,,,,,,,,,,,,,,,,,,,,,,,,,,,,,,,,,,,,,,,,,,,,,,,,,
html-keyboard-response,43,186700,0.0-3.0-5.0-0.0-1.17,CRGZ4TavntGH5E9LSBCX,223301,3,gY6qXF9uvTh4pZ4W0xiBwAUrnA,Bfv9y7h43Ts4FuNAQ82peNGlrb,,,,,,,,,,,,leapfrog_trial_feedback,,,,,"<p style=""font-size: 3em; color: green;"">You won <b>40</b> points.</p>",,,,,,,,,,,,,,,,,,,,,,,,,,,,,,,,,,,,,,,,,,,,,,,,,,,,,,,,,,,,,,,,,,,,,,,,,,,,,,,,,,,,,,,,,,,,,
html-keyboard-response,44,187121,0.0-3.0-5.0-0.0-0.18,CRGZ4TavntGH5E9LSBCX,223301,3,gY6qXF9uvTh4pZ4W0xiBwAUrnA,Bfv9y7h43Ts4FuNAQ82peNGlrb,,,,,,,,,,,,leapfrog_pt_trial,,420.0,,,"<div style=""font-size:3em;"">CHOOSE</div>
                        <div id=""leapfrog_options_container"">
                            <div id=""option_A"">OPTION A<br><span>(left arrow)</span></div>
                            <div id=""option_B"">OPTION B<br><span>(right arrow)</span></div>
                        </div><div style=""display: flex; justify-content: space-around; font-size: 1em; margin-top: 1em; font-style: italic"">
                                <div>30 points</div>
                                <div>40 points</div>
                            </div>",arrowright,True,0.0,18.0,30.0,40.0,40.0,B,,,,,,,,,,,,,,,,,,,,,,,,,,,,,,,,,,,,,,,,,,,,,,,,,,,,,,,,,,,,,,,,,,,,,,,,,,,,,,,,,,,,,
html-keyboard-response,45,188131,0.0-3.0-5.0-0.0-1.18,CRGZ4TavntGH5E9LSBCX,223301,3,gY6qXF9uvTh4pZ4W0xiBwAUrnA,Bfv9y7h43Ts4FuNAQ82peNGlrb,,,,,,,,,,,,leapfrog_trial_feedback,,,,,"<p style=""font-size: 3em; color: green;"">You won <b>40</b> points.</p>",,,,,,,,,,,,,,,,,,,,,,,,,,,,,,,,,,,,,,,,,,,,,,,,,,,,,,,,,,,,,,,,,,,,,,,,,,,,,,,,,,,,,,,,,,,,,
html-keyboard-response,46,188620,0.0-3.0-5.0-0.0-0.19,CRGZ4TavntGH5E9LSBCX,223301,3,gY6qXF9uvTh4pZ4W0xiBwAUrnA,Bfv9y7h43Ts4FuNAQ82peNGlrb,,,,,,,,,,,,leapfrog_pt_trial,,488.0,,,"<div style=""font-size:3em;"">CHOOSE</div>
                        <div id=""leapfrog_options_container"">
                            <div id=""option_A"">OPTION A<br><span>(left arrow)</span></div>
                            <div id=""option_B"">OPTION B<br><span>(right arrow)</span></div>
                        </div><div style=""display: flex; justify-content: space-around; font-size: 1em; margin-top: 1em; font-style: italic"">
                                <div>30 points</div>
                                <div>40 points</div>
                            </div>",arrowright,True,0.0,19.0,30.0,40.0,40.0,B,,,,,,,,,,,,,,,,,,,,,,,,,,,,,,,,,,,,,,,,,,,,,,,,,,,,,,,,,,,,,,,,,,,,,,,,,,,,,,,,,,,,,
html-keyboard-response,47,189634,0.0-3.0-5.0-0.0-1.19,CRGZ4TavntGH5E9LSBCX,223301,3,gY6qXF9uvTh4pZ4W0xiBwAUrnA,Bfv9y7h43Ts4FuNAQ82peNGlrb,,,,,,,,,,,,leapfrog_trial_feedback,,,,,"<p style=""font-size: 3em; color: green;"">You won <b>40</b> points.</p>",,,,,,,,,,,,,,,,,,,,,,,,,,,,,,,,,,,,,,,,,,,,,,,,,,,,,,,,,,,,,,,,,,,,,,,,,,,,,,,,,,,,,,,,,,,,,
survey-html-form,48,203113,0.0-3.0-5.0-1.0-0.0-0.0,CRGZ4TavntGH5E9LSBCX,223301,3,gY6qXF9uvTh4pZ4W0xiBwAUrnA,Bfv9y7h43Ts4FuNAQ82peNGlrb,,,,,,,,,,,,leapfrog_pt_trial_interblock_question,,13477.0,False,103.0,,{'prediction': '3'},,,,,,,,1.0,3.0,,,,,,,,,,,,,,,,,,,,,,,,,,,,,,,,,,,,,,,,,,,,,,,,,,,,,,,,,,,,,,,,,,,,,,,,,,,,,,,,,,,
html-keyboard-response,49,207699,0.0-3.0-5.0-1.0-0.0-1.0,CRGZ4TavntGH5E9LSBCX,223301,3,gY6qXF9uvTh4pZ4W0xiBwAUrnA,Bfv9y7h43Ts4FuNAQ82peNGlrb,,,,,,,,,,,,pt_trial_after_interblock,,4585.0,False,111.0,"<p>Now, please <b>place your right hand on the left and right arrow keys</b>.</p>
                            <p><i>Press the <b>spacebar</b> with your left hand whenever you are ready to continue!</i></p>", ,,,,,,,,,,,,,,,,,,,,,,,,,,,,,,,,,,,,,,,,,,,,,,,,,,,,,,,,,,,,,,,,,,,,,,,,,,,,,,,,,,,,,,,,,,,,
html-keyboard-response,50,208685,0.0-3.0-5.0-2.0-0.0,CRGZ4TavntGH5E9LSBCX,223301,3,gY6qXF9uvTh4pZ4W0xiBwAUrnA,Bfv9y7h43Ts4FuNAQ82peNGlrb,,,,,,,,,,,,leapfrog_pt_trial,,985.0,,,"<div style=""font-size:3em;"">CHOOSE</div>
                        <div id=""leapfrog_options_container"">
                            <div id=""option_A"">OPTION A<br><span>(left arrow)</span></div>
                            <div id=""option_B"">OPTION B<br><span>(right arrow)</span></div>
                        </div><div style=""display: flex; justify-content: space-around; font-size: 1em; margin-top: 1em; font-style: italic"">
                                <div>30 points</div>
                                <div>40 points</div>
                            </div>",arrowright,True,1.0,20.0,30.0,40.0,40.0,B,,,,,,,,,,,,,,,,,,,,,,,,,,,,,,,,,,,,,,,,,,,,,,,,,,,,,,,,,,,,,,,,,,,,,,,,,,,,,,,,,,,,,
html-keyboard-response,51,209700,0.0-3.0-5.0-2.0-1.0,CRGZ4TavntGH5E9LSBCX,223301,3,gY6qXF9uvTh4pZ4W0xiBwAUrnA,Bfv9y7h43Ts4FuNAQ82peNGlrb,,,,,,,,,,,,leapfrog_trial_feedback,,,,,"<p style=""font-size: 3em; color: green;"">You won <b>40</b> points.</p>",,,,,,,,,,,,,,,,,,,,,,,,,,,,,,,,,,,,,,,,,,,,,,,,,,,,,,,,,,,,,,,,,,,,,,,,,,,,,,,,,,,,,,,,,,,,,
html-keyboard-response,52,210149,0.0-3.0-5.0-2.0-0.1,CRGZ4TavntGH5E9LSBCX,223301,3,gY6qXF9uvTh4pZ4W0xiBwAUrnA,Bfv9y7h43Ts4FuNAQ82peNGlrb,,,,,,,,,,,,leapfrog_pt_trial,,449.0,,,"<div style=""font-size:3em;"">CHOOSE</div>
                        <div id=""leapfrog_options_container"">
                            <div id=""option_A"">OPTION A<br><span>(left arrow)</span></div>
                            <div id=""option_B"">OPTION B<br><span>(right arrow)</span></div>
                        </div><div style=""display: flex; justify-content: space-around; font-size: 1em; margin-top: 1em; font-style: italic"">
                                <div>30 points</div>
                                <div>40 points</div>
                            </div>",arrowright,True,1.0,21.0,30.0,40.0,40.0,B,,,,,,,,,,,,,,,,,,,,,,,,,,,,,,,,,,,,,,,,,,,,,,,,,,,,,,,,,,,,,,,,,,,,,,,,,,,,,,,,,,,,,
html-keyboard-response,53,211154,0.0-3.0-5.0-2.0-1.1,CRGZ4TavntGH5E9LSBCX,223301,3,gY6qXF9uvTh4pZ4W0xiBwAUrnA,Bfv9y7h43Ts4FuNAQ82peNGlrb,,,,,,,,,,,,leapfrog_trial_feedback,,,,,"<p style=""font-size: 3em; color: green;"">You won <b>40</b> points.</p>",,,,,,,,,,,,,,,,,,,,,,,,,,,,,,,,,,,,,,,,,,,,,,,,,,,,,,,,,,,,,,,,,,,,,,,,,,,,,,,,,,,,,,,,,,,,,
html-keyboard-response,54,211793,0.0-3.0-5.0-2.0-0.2,CRGZ4TavntGH5E9LSBCX,223301,3,gY6qXF9uvTh4pZ4W0xiBwAUrnA,Bfv9y7h43Ts4FuNAQ82peNGlrb,,,,,,,,,,,,leapfrog_pt_trial,,638.0,,,"<div style=""font-size:3em;"">CHOOSE</div>
                        <div id=""leapfrog_options_container"">
                            <div id=""option_A"">OPTION A<br><span>(left arrow)</span></div>
                            <div id=""option_B"">OPTION B<br><span>(right arrow)</span></div>
                        </div><div style=""display: flex; justify-content: space-around; font-size: 1em; margin-top: 1em; font-style: italic"">
                                <div>30 points</div>
                                <div>40 points</div>
                            </div>",arrowright,True,1.0,22.0,30.0,40.0,40.0,B,,,,,,,,,,,,,,,,,,,,,,,,,,,,,,,,,,,,,,,,,,,,,,,,,,,,,,,,,,,,,,,,,,,,,,,,,,,,,,,,,,,,,
html-keyboard-response,55,212794,0.0-3.0-5.0-2.0-1.2,CRGZ4TavntGH5E9LSBCX,223301,3,gY6qXF9uvTh4pZ4W0xiBwAUrnA,Bfv9y7h43Ts4FuNAQ82peNGlrb,,,,,,,,,,,,leapfrog_trial_feedback,,,,,"<p style=""font-size: 3em; color: green;"">You won <b>40</b> points.</p>",,,,,,,,,,,,,,,,,,,,,,,,,,,,,,,,,,,,,,,,,,,,,,,,,,,,,,,,,,,,,,,,,,,,,,,,,,,,,,,,,,,,,,,,,,,,,
html-keyboard-response,56,213354,0.0-3.0-5.0-2.0-0.3,CRGZ4TavntGH5E9LSBCX,223301,3,gY6qXF9uvTh4pZ4W0xiBwAUrnA,Bfv9y7h43Ts4FuNAQ82peNGlrb,,,,,,,,,,,,leapfrog_pt_trial,,559.0,,,"<div style=""font-size:3em;"">CHOOSE</div>
                        <div id=""leapfrog_options_container"">
                            <div id=""option_A"">OPTION A<br><span>(left arrow)</span></div>
                            <div id=""option_B"">OPTION B<br><span>(right arrow)</span></div>
                        </div><div style=""display: flex; justify-content: space-around; font-size: 1em; margin-top: 1em; font-style: italic"">
                                <div>30 points</div>
                                <div>40 points</div>
                            </div>",arrowright,True,1.0,23.0,30.0,40.0,40.0,B,,,,,,,,,,,,,,,,,,,,,,,,,,,,,,,,,,,,,,,,,,,,,,,,,,,,,,,,,,,,,,,,,,,,,,,,,,,,,,,,,,,,,
html-keyboard-response,57,214360,0.0-3.0-5.0-2.0-1.3,CRGZ4TavntGH5E9LSBCX,223301,3,gY6qXF9uvTh4pZ4W0xiBwAUrnA,Bfv9y7h43Ts4FuNAQ82peNGlrb,,,,,,,,,,,,leapfrog_trial_feedback,,,,,"<p style=""font-size: 3em; color: green;"">You won <b>40</b> points.</p>",,,,,,,,,,,,,,,,,,,,,,,,,,,,,,,,,,,,,,,,,,,,,,,,,,,,,,,,,,,,,,,,,,,,,,,,,,,,,,,,,,,,,,,,,,,,,
html-keyboard-response,58,215025,0.0-3.0-5.0-2.0-0.4,CRGZ4TavntGH5E9LSBCX,223301,3,gY6qXF9uvTh4pZ4W0xiBwAUrnA,Bfv9y7h43Ts4FuNAQ82peNGlrb,,,,,,,,,,,,leapfrog_pt_trial,,665.0,,,"<div style=""font-size:3em;"">CHOOSE</div>
                        <div id=""leapfrog_options_container"">
                            <div id=""option_A"">OPTION A<br><span>(left arrow)</span></div>
                            <div id=""option_B"">OPTION B<br><span>(right arrow)</span></div>
                        </div><div style=""display: flex; justify-content: space-around; font-size: 1em; margin-top: 1em; font-style: italic"">
                                <div>30 points</div>
                                <div>40 points</div>
                            </div>",arrowright,True,1.0,24.0,30.0,40.0,40.0,B,,,,,,,,,,,,,,,,,,,,,,,,,,,,,,,,,,,,,,,,,,,,,,,,,,,,,,,,,,,,,,,,,,,,,,,,,,,,,,,,,,,,,
html-keyboard-response,59,216035,0.0-3.0-5.0-2.0-1.4,CRGZ4TavntGH5E9LSBCX,223301,3,gY6qXF9uvTh4pZ4W0xiBwAUrnA,Bfv9y7h43Ts4FuNAQ82peNGlrb,,,,,,,,,,,,leapfrog_trial_feedback,,,,,"<p style=""font-size: 3em; color: green;"">You won <b>40</b> points.</p>",,,,,,,,,,,,,,,,,,,,,,,,,,,,,,,,,,,,,,,,,,,,,,,,,,,,,,,,,,,,,,,,,,,,,,,,,,,,,,,,,,,,,,,,,,,,,
html-keyboard-response,60,216649,0.0-3.0-5.0-2.0-0.5,CRGZ4TavntGH5E9LSBCX,223301,3,gY6qXF9uvTh4pZ4W0xiBwAUrnA,Bfv9y7h43Ts4FuNAQ82peNGlrb,,,,,,,,,,,,leapfrog_pt_trial,,614.0,,,"<div style=""font-size:3em;"">CHOOSE</div>
                        <div id=""leapfrog_options_container"">
                            <div id=""option_A"">OPTION A<br><span>(left arrow)</span></div>
                            <div id=""option_B"">OPTION B<br><span>(right arrow)</span></div>
                        </div><div style=""display: flex; justify-content: space-around; font-size: 1em; margin-top: 1em; font-style: italic"">
                                <div>30 points</div>
                                <div>40 points</div>
                            </div>",arrowright,True,1.0,25.0,30.0,40.0,40.0,B,,,,,,,,,,,,,,,,,,,,,,,,,,,,,,,,,,,,,,,,,,,,,,,,,,,,,,,,,,,,,,,,,,,,,,,,,,,,,,,,,,,,,
html-keyboard-response,61,217655,0.0-3.0-5.0-2.0-1.5,CRGZ4TavntGH5E9LSBCX,223301,3,gY6qXF9uvTh4pZ4W0xiBwAUrnA,Bfv9y7h43Ts4FuNAQ82peNGlrb,,,,,,,,,,,,leapfrog_trial_feedback,,,,,"<p style=""font-size: 3em; color: green;"">You won <b>40</b> points.</p>",,,,,,,,,,,,,,,,,,,,,,,,,,,,,,,,,,,,,,,,,,,,,,,,,,,,,,,,,,,,,,,,,,,,,,,,,,,,,,,,,,,,,,,,,,,,,
html-keyboard-response,62,218246,0.0-3.0-5.0-2.0-0.6,CRGZ4TavntGH5E9LSBCX,223301,3,gY6qXF9uvTh4pZ4W0xiBwAUrnA,Bfv9y7h43Ts4FuNAQ82peNGlrb,,,,,,,,,,,,leapfrog_pt_trial,,590.0,,,"<div style=""font-size:3em;"">CHOOSE</div>
                        <div id=""leapfrog_options_container"">
                            <div id=""option_A"">OPTION A<br><span>(left arrow)</span></div>
                            <div id=""option_B"">OPTION B<br><span>(right arrow)</span></div>
                        </div><div style=""display: flex; justify-content: space-around; font-size: 1em; margin-top: 1em; font-style: italic"">
                                <div>30 points</div>
                                <div>40 points</div>
                            </div>",arrowright,True,1.0,26.0,30.0,40.0,40.0,B,,,,,,,,,,,,,,,,,,,,,,,,,,,,,,,,,,,,,,,,,,,,,,,,,,,,,,,,,,,,,,,,,,,,,,,,,,,,,,,,,,,,,
html-keyboard-response,63,219260,0.0-3.0-5.0-2.0-1.6,CRGZ4TavntGH5E9LSBCX,223301,3,gY6qXF9uvTh4pZ4W0xiBwAUrnA,Bfv9y7h43Ts4FuNAQ82peNGlrb,,,,,,,,,,,,leapfrog_trial_feedback,,,,,"<p style=""font-size: 3em; color: green;"">You won <b>40</b> points.</p>",,,,,,,,,,,,,,,,,,,,,,,,,,,,,,,,,,,,,,,,,,,,,,,,,,,,,,,,,,,,,,,,,,,,,,,,,,,,,,,,,,,,,,,,,,,,,
html-keyboard-response,64,219853,0.0-3.0-5.0-2.0-0.7,CRGZ4TavntGH5E9LSBCX,223301,3,gY6qXF9uvTh4pZ4W0xiBwAUrnA,Bfv9y7h43Ts4FuNAQ82peNGlrb,,,,,,,,,,,,leapfrog_pt_trial,,593.0,,,"<div style=""font-size:3em;"">CHOOSE</div>
                        <div id=""leapfrog_options_container"">
                            <div id=""option_A"">OPTION A<br><span>(left arrow)</span></div>
                            <div id=""option_B"">OPTION B<br><span>(right arrow)</span></div>
                        </div><div style=""display: flex; justify-content: space-around; font-size: 1em; margin-top: 1em; font-style: italic"">
                                <div>50 points</div>
                                <div>40 points</div>
                            </div>",arrowleft,True,1.0,27.0,50.0,40.0,50.0,A,,,,,,,,,,,,,,,,,,,,,,,,,,,,,,,,,,,,,,,,,,,,,,,,,,,,,,,,,,,,,,,,,,,,,,,,,,,,,,,,,,,,,
html-keyboard-response,65,220868,0.0-3.0-5.0-2.0-1.7,CRGZ4TavntGH5E9LSBCX,223301,3,gY6qXF9uvTh4pZ4W0xiBwAUrnA,Bfv9y7h43Ts4FuNAQ82peNGlrb,,,,,,,,,,,,leapfrog_trial_feedback,,,,,"<p style=""font-size: 3em; color: green;"">You won <b>50</b> points.</p>",,,,,,,,,,,,,,,,,,,,,,,,,,,,,,,,,,,,,,,,,,,,,,,,,,,,,,,,,,,,,,,,,,,,,,,,,,,,,,,,,,,,,,,,,,,,,
html-keyboard-response,66,221169,0.0-3.0-5.0-2.0-0.8,CRGZ4TavntGH5E9LSBCX,223301,3,gY6qXF9uvTh4pZ4W0xiBwAUrnA,Bfv9y7h43Ts4FuNAQ82peNGlrb,,,,,,,,,,,,leapfrog_pt_trial,,301.0,,,"<div style=""font-size:3em;"">CHOOSE</div>
                        <div id=""leapfrog_options_container"">
                            <div id=""option_A"">OPTION A<br><span>(left arrow)</span></div>
                            <div id=""option_B"">OPTION B<br><span>(right arrow)</span></div>
                        </div><div style=""display: flex; justify-content: space-around; font-size: 1em; margin-top: 1em; font-style: italic"">
                                <div>50 points</div>
                                <div>40 points</div>
                            </div>",arrowleft,True,1.0,28.0,50.0,40.0,50.0,A,,,,,,,,,,,,,,,,,,,,,,,,,,,,,,,,,,,,,,,,,,,,,,,,,,,,,,,,,,,,,,,,,,,,,,,,,,,,,,,,,,,,,
html-keyboard-response,67,222176,0.0-3.0-5.0-2.0-1.8,CRGZ4TavntGH5E9LSBCX,223301,3,gY6qXF9uvTh4pZ4W0xiBwAUrnA,Bfv9y7h43Ts4FuNAQ82peNGlrb,,,,,,,,,,,,leapfrog_trial_feedback,,,,,"<p style=""font-size: 3em; color: green;"">You won <b>50</b> points.</p>",,,,,,,,,,,,,,,,,,,,,,,,,,,,,,,,,,,,,,,,,,,,,,,,,,,,,,,,,,,,,,,,,,,,,,,,,,,,,,,,,,,,,,,,,,,,,
html-keyboard-response,68,222506,0.0-3.0-5.0-2.0-0.9,CRGZ4TavntGH5E9LSBCX,223301,3,gY6qXF9uvTh4pZ4W0xiBwAUrnA,Bfv9y7h43Ts4FuNAQ82peNGlrb,,,,,,,,,,,,leapfrog_pt_trial,,329.0,,,"<div style=""font-size:3em;"">CHOOSE</div>
                        <div id=""leapfrog_options_container"">
                            <div id=""option_A"">OPTION A<br><span>(left arrow)</span></div>
                            <div id=""option_B"">OPTION B<br><span>(right arrow)</span></div>
                        </div><div style=""display: flex; justify-content: space-around; font-size: 1em; margin-top: 1em; font-style: italic"">
                                <div>50 points</div>
                                <div>40 points</div>
                            </div>",arrowleft,True,1.0,29.0,50.0,40.0,50.0,A,,,,,,,,,,,,,,,,,,,,,,,,,,,,,,,,,,,,,,,,,,,,,,,,,,,,,,,,,,,,,,,,,,,,,,,,,,,,,,,,,,,,,
html-keyboard-response,69,223517,0.0-3.0-5.0-2.0-1.9,CRGZ4TavntGH5E9LSBCX,223301,3,gY6qXF9uvTh4pZ4W0xiBwAUrnA,Bfv9y7h43Ts4FuNAQ82peNGlrb,,,,,,,,,,,,leapfrog_trial_feedback,,,,,"<p style=""font-size: 3em; color: green;"">You won <b>50</b> points.</p>",,,,,,,,,,,,,,,,,,,,,,,,,,,,,,,,,,,,,,,,,,,,,,,,,,,,,,,,,,,,,,,,,,,,,,,,,,,,,,,,,,,,,,,,,,,,,
html-keyboard-response,70,223821,0.0-3.0-5.0-2.0-0.10,CRGZ4TavntGH5E9LSBCX,223301,3,gY6qXF9uvTh4pZ4W0xiBwAUrnA,Bfv9y7h43Ts4FuNAQ82peNGlrb,,,,,,,,,,,,leapfrog_pt_trial,,304.0,,,"<div style=""font-size:3em;"">CHOOSE</div>
                        <div id=""leapfrog_options_container"">
                            <div id=""option_A"">OPTION A<br><span>(left arrow)</span></div>
                            <div id=""option_B"">OPTION B<br><span>(right arrow)</span></div>
                        </div><div style=""display: flex; justify-content: space-around; font-size: 1em; margin-top: 1em; font-style: italic"">
                                <div>50 points</div>
                                <div>40 points</div>
                            </div>",arrowleft,True,1.0,30.0,50.0,40.0,50.0,A,,,,,,,,,,,,,,,,,,,,,,,,,,,,,,,,,,,,,,,,,,,,,,,,,,,,,,,,,,,,,,,,,,,,,,,,,,,,,,,,,,,,,
html-keyboard-response,71,224837,0.0-3.0-5.0-2.0-1.10,CRGZ4TavntGH5E9LSBCX,223301,3,gY6qXF9uvTh4pZ4W0xiBwAUrnA,Bfv9y7h43Ts4FuNAQ82peNGlrb,,,,,,,,,,,,leapfrog_trial_feedback,,,,,"<p style=""font-size: 3em; color: green;"">You won <b>50</b> points.</p>",,,,,,,,,,,,,,,,,,,,,,,,,,,,,,,,,,,,,,,,,,,,,,,,,,,,,,,,,,,,,,,,,,,,,,,,,,,,,,,,,,,,,,,,,,,,,
html-keyboard-response,72,225149,0.0-3.0-5.0-2.0-0.11,CRGZ4TavntGH5E9LSBCX,223301,3,gY6qXF9uvTh4pZ4W0xiBwAUrnA,Bfv9y7h43Ts4FuNAQ82peNGlrb,,,,,,,,,,,,leapfrog_pt_trial,,312.0,,,"<div style=""font-size:3em;"">CHOOSE</div>
                        <div id=""leapfrog_options_container"">
                            <div id=""option_A"">OPTION A<br><span>(left arrow)</span></div>
                            <div id=""option_B"">OPTION B<br><span>(right arrow)</span></div>
                        </div><div style=""display: flex; justify-content: space-around; font-size: 1em; margin-top: 1em; font-style: italic"">
                                <div>50 points</div>
                                <div>40 points</div>
                            </div>",arrowleft,True,1.0,31.0,50.0,40.0,50.0,A,,,,,,,,,,,,,,,,,,,,,,,,,,,,,,,,,,,,,,,,,,,,,,,,,,,,,,,,,,,,,,,,,,,,,,,,,,,,,,,,,,,,,
html-keyboard-response,73,226152,0.0-3.0-5.0-2.0-1.11,CRGZ4TavntGH5E9LSBCX,223301,3,gY6qXF9uvTh4pZ4W0xiBwAUrnA,Bfv9y7h43Ts4FuNAQ82peNGlrb,,,,,,,,,,,,leapfrog_trial_feedback,,,,,"<p style=""font-size: 3em; color: green;"">You won <b>50</b> points.</p>",,,,,,,,,,,,,,,,,,,,,,,,,,,,,,,,,,,,,,,,,,,,,,,,,,,,,,,,,,,,,,,,,,,,,,,,,,,,,,,,,,,,,,,,,,,,,
html-keyboard-response,74,226489,0.0-3.0-5.0-2.0-0.12,CRGZ4TavntGH5E9LSBCX,223301,3,gY6qXF9uvTh4pZ4W0xiBwAUrnA,Bfv9y7h43Ts4FuNAQ82peNGlrb,,,,,,,,,,,,leapfrog_pt_trial,,336.0,,,"<div style=""font-size:3em;"">CHOOSE</div>
                        <div id=""leapfrog_options_container"">
                            <div id=""option_A"">OPTION A<br><span>(left arrow)</span></div>
                            <div id=""option_B"">OPTION B<br><span>(right arrow)</span></div>
                        </div><div style=""display: flex; justify-content: space-around; font-size: 1em; margin-top: 1em; font-style: italic"">
                                <div>50 points</div>
                                <div>40 points</div>
                            </div>",arrowleft,True,1.0,32.0,50.0,40.0,50.0,A,,,,,,,,,,,,,,,,,,,,,,,,,,,,,,,,,,,,,,,,,,,,,,,,,,,,,,,,,,,,,,,,,,,,,,,,,,,,,,,,,,,,,
html-keyboard-response,75,227497,0.0-3.0-5.0-2.0-1.12,CRGZ4TavntGH5E9LSBCX,223301,3,gY6qXF9uvTh4pZ4W0xiBwAUrnA,Bfv9y7h43Ts4FuNAQ82peNGlrb,,,,,,,,,,,,leapfrog_trial_feedback,,,,,"<p style=""font-size: 3em; color: green;"">You won <b>50</b> points.</p>",,,,,,,,,,,,,,,,,,,,,,,,,,,,,,,,,,,,,,,,,,,,,,,,,,,,,,,,,,,,,,,,,,,,,,,,,,,,,,,,,,,,,,,,,,,,,
html-keyboard-response,76,227809,0.0-3.0-5.0-2.0-0.13,CRGZ4TavntGH5E9LSBCX,223301,3,gY6qXF9uvTh4pZ4W0xiBwAUrnA,Bfv9y7h43Ts4FuNAQ82peNGlrb,,,,,,,,,,,,leapfrog_pt_trial,,312.0,,,"<div style=""font-size:3em;"">CHOOSE</div>
                        <div id=""leapfrog_options_container"">
                            <div id=""option_A"">OPTION A<br><span>(left arrow)</span></div>
                            <div id=""option_B"">OPTION B<br><span>(right arrow)</span></div>
                        </div><div style=""display: flex; justify-content: space-around; font-size: 1em; margin-top: 1em; font-style: italic"">
                                <div>50 points</div>
                                <div>40 points</div>
                            </div>",arrowleft,True,1.0,33.0,50.0,40.0,50.0,A,,,,,,,,,,,,,,,,,,,,,,,,,,,,,,,,,,,,,,,,,,,,,,,,,,,,,,,,,,,,,,,,,,,,,,,,,,,,,,,,,,,,,
html-keyboard-response,77,228815,0.0-3.0-5.0-2.0-1.13,CRGZ4TavntGH5E9LSBCX,223301,3,gY6qXF9uvTh4pZ4W0xiBwAUrnA,Bfv9y7h43Ts4FuNAQ82peNGlrb,,,,,,,,,,,,leapfrog_trial_feedback,,,,,"<p style=""font-size: 3em; color: green;"">You won <b>50</b> points.</p>",,,,,,,,,,,,,,,,,,,,,,,,,,,,,,,,,,,,,,,,,,,,,,,,,,,,,,,,,,,,,,,,,,,,,,,,,,,,,,,,,,,,,,,,,,,,,
html-keyboard-response,78,229110,0.0-3.0-5.0-2.0-0.14,CRGZ4TavntGH5E9LSBCX,223301,3,gY6qXF9uvTh4pZ4W0xiBwAUrnA,Bfv9y7h43Ts4FuNAQ82peNGlrb,,,,,,,,,,,,leapfrog_pt_trial,,295.0,,,"<div style=""font-size:3em;"">CHOOSE</div>
                        <div id=""leapfrog_options_container"">
                            <div id=""option_A"">OPTION A<br><span>(left arrow)</span></div>
                            <div id=""option_B"">OPTION B<br><span>(right arrow)</span></div>
                        </div><div style=""display: flex; justify-content: space-around; font-size: 1em; margin-top: 1em; font-style: italic"">
                                <div>50 points</div>
                                <div>60 points</div>
                            </div>",arrowleft,True,1.0,34.0,50.0,60.0,50.0,A,,,,,,,,,,,,,,,,,,,,,,,,,,,,,,,,,,,,,,,,,,,,,,,,,,,,,,,,,,,,,,,,,,,,,,,,,,,,,,,,,,,,,
html-keyboard-response,79,230117,0.0-3.0-5.0-2.0-1.14,CRGZ4TavntGH5E9LSBCX,223301,3,gY6qXF9uvTh4pZ4W0xiBwAUrnA,Bfv9y7h43Ts4FuNAQ82peNGlrb,,,,,,,,,,,,leapfrog_trial_feedback,,,,,"<p style=""font-size: 3em; color: green;"">You won <b>50</b> points.</p>",,,,,,,,,,,,,,,,,,,,,,,,,,,,,,,,,,,,,,,,,,,,,,,,,,,,,,,,,,,,,,,,,,,,,,,,,,,,,,,,,,,,,,,,,,,,,
html-keyboard-response,80,230429,0.0-3.0-5.0-2.0-0.15,CRGZ4TavntGH5E9LSBCX,223301,3,gY6qXF9uvTh4pZ4W0xiBwAUrnA,Bfv9y7h43Ts4FuNAQ82peNGlrb,,,,,,,,,,,,leapfrog_pt_trial,,312.0,,,"<div style=""font-size:3em;"">CHOOSE</div>
                        <div id=""leapfrog_options_container"">
                            <div id=""option_A"">OPTION A<br><span>(left arrow)</span></div>
                            <div id=""option_B"">OPTION B<br><span>(right arrow)</span></div>
                        </div><div style=""display: flex; justify-content: space-around; font-size: 1em; margin-top: 1em; font-style: italic"">
                                <div>50 points</div>
                                <div>60 points</div>
                            </div>",arrowleft,True,1.0,35.0,50.0,60.0,50.0,A,,,,,,,,,,,,,,,,,,,,,,,,,,,,,,,,,,,,,,,,,,,,,,,,,,,,,,,,,,,,,,,,,,,,,,,,,,,,,,,,,,,,,
html-keyboard-response,81,231431,0.0-3.0-5.0-2.0-1.15,CRGZ4TavntGH5E9LSBCX,223301,3,gY6qXF9uvTh4pZ4W0xiBwAUrnA,Bfv9y7h43Ts4FuNAQ82peNGlrb,,,,,,,,,,,,leapfrog_trial_feedback,,,,,"<p style=""font-size: 3em; color: green;"">You won <b>50</b> points.</p>",,,,,,,,,,,,,,,,,,,,,,,,,,,,,,,,,,,,,,,,,,,,,,,,,,,,,,,,,,,,,,,,,,,,,,,,,,,,,,,,,,,,,,,,,,,,,
html-keyboard-response,82,231781,0.0-3.0-5.0-2.0-0.16,CRGZ4TavntGH5E9LSBCX,223301,3,gY6qXF9uvTh4pZ4W0xiBwAUrnA,Bfv9y7h43Ts4FuNAQ82peNGlrb,,,,,,,,,,,,leapfrog_pt_trial,,350.0,,,"<div style=""font-size:3em;"">CHOOSE</div>
                        <div id=""leapfrog_options_container"">
                            <div id=""option_A"">OPTION A<br><span>(left arrow)</span></div>
                            <div id=""option_B"">OPTION B<br><span>(right arrow)</span></div>
                        </div><div style=""display: flex; justify-content: space-around; font-size: 1em; margin-top: 1em; font-style: italic"">
                                <div>50 points</div>
                                <div>60 points</div>
                            </div>",arrowleft,True,1.0,36.0,50.0,60.0,50.0,A,,,,,,,,,,,,,,,,,,,,,,,,,,,,,,,,,,,,,,,,,,,,,,,,,,,,,,,,,,,,,,,,,,,,,,,,,,,,,,,,,,,,,
html-keyboard-response,83,232796,0.0-3.0-5.0-2.0-1.16,CRGZ4TavntGH5E9LSBCX,223301,3,gY6qXF9uvTh4pZ4W0xiBwAUrnA,Bfv9y7h43Ts4FuNAQ82peNGlrb,,,,,,,,,,,,leapfrog_trial_feedback,,,,,"<p style=""font-size: 3em; color: green;"">You won <b>50</b> points.</p>",,,,,,,,,,,,,,,,,,,,,,,,,,,,,,,,,,,,,,,,,,,,,,,,,,,,,,,,,,,,,,,,,,,,,,,,,,,,,,,,,,,,,,,,,,,,,
html-keyboard-response,84,233279,0.0-3.0-5.0-2.0-0.17,CRGZ4TavntGH5E9LSBCX,223301,3,gY6qXF9uvTh4pZ4W0xiBwAUrnA,Bfv9y7h43Ts4FuNAQ82peNGlrb,,,,,,,,,,,,leapfrog_pt_trial,,483.0,,,"<div style=""font-size:3em;"">CHOOSE</div>
                        <div id=""leapfrog_options_container"">
                            <div id=""option_A"">OPTION A<br><span>(left arrow)</span></div>
                            <div id=""option_B"">OPTION B<br><span>(right arrow)</span></div>
                        </div><div style=""display: flex; justify-content: space-around; font-size: 1em; margin-top: 1em; font-style: italic"">
                                <div>50 points</div>
                                <div>60 points</div>
                            </div>",arrowleft,True,1.0,37.0,50.0,60.0,50.0,A,,,,,,,,,,,,,,,,,,,,,,,,,,,,,,,,,,,,,,,,,,,,,,,,,,,,,,,,,,,,,,,,,,,,,,,,,,,,,,,,,,,,,
html-keyboard-response,85,234281,0.0-3.0-5.0-2.0-1.17,CRGZ4TavntGH5E9LSBCX,223301,3,gY6qXF9uvTh4pZ4W0xiBwAUrnA,Bfv9y7h43Ts4FuNAQ82peNGlrb,,,,,,,,,,,,leapfrog_trial_feedback,,,,,"<p style=""font-size: 3em; color: green;"">You won <b>50</b> points.</p>",,,,,,,,,,,,,,,,,,,,,,,,,,,,,,,,,,,,,,,,,,,,,,,,,,,,,,,,,,,,,,,,,,,,,,,,,,,,,,,,,,,,,,,,,,,,,
html-keyboard-response,86,234743,0.0-3.0-5.0-2.0-0.18,CRGZ4TavntGH5E9LSBCX,223301,3,gY6qXF9uvTh4pZ4W0xiBwAUrnA,Bfv9y7h43Ts4FuNAQ82peNGlrb,,,,,,,,,,,,leapfrog_pt_trial,,462.0,,,"<div style=""font-size:3em;"">CHOOSE</div>
                        <div id=""leapfrog_options_container"">
                            <div id=""option_A"">OPTION A<br><span>(left arrow)</span></div>
                            <div id=""option_B"">OPTION B<br><span>(right arrow)</span></div>
                        </div><div style=""display: flex; justify-content: space-around; font-size: 1em; margin-top: 1em; font-style: italic"">
                                <div>50 points</div>
                                <div>60 points</div>
                            </div>",arrowright,True,1.0,38.0,50.0,60.0,60.0,B,,,,,,,,,,,,,,,,,,,,,,,,,,,,,,,,,,,,,,,,,,,,,,,,,,,,,,,,,,,,,,,,,,,,,,,,,,,,,,,,,,,,,
html-keyboard-response,87,235751,0.0-3.0-5.0-2.0-1.18,CRGZ4TavntGH5E9LSBCX,223301,3,gY6qXF9uvTh4pZ4W0xiBwAUrnA,Bfv9y7h43Ts4FuNAQ82peNGlrb,,,,,,,,,,,,leapfrog_trial_feedback,,,,,"<p style=""font-size: 3em; color: green;"">You won <b>60</b> points.</p>",,,,,,,,,,,,,,,,,,,,,,,,,,,,,,,,,,,,,,,,,,,,,,,,,,,,,,,,,,,,,,,,,,,,,,,,,,,,,,,,,,,,,,,,,,,,,
html-keyboard-response,88,236120,0.0-3.0-5.0-2.0-0.19,CRGZ4TavntGH5E9LSBCX,223301,3,gY6qXF9uvTh4pZ4W0xiBwAUrnA,Bfv9y7h43Ts4FuNAQ82peNGlrb,,,,,,,,,,,,leapfrog_pt_trial,,369.0,,,"<div style=""font-size:3em;"">CHOOSE</div>
                        <div id=""leapfrog_options_container"">
                            <div id=""option_A"">OPTION A<br><span>(left arrow)</span></div>
                            <div id=""option_B"">OPTION B<br><span>(right arrow)</span></div>
                        </div><div style=""display: flex; justify-content: space-around; font-size: 1em; margin-top: 1em; font-style: italic"">
                                <div>50 points</div>
                                <div>60 points</div>
                            </div>",arrowright,True,1.0,39.0,50.0,60.0,60.0,B,,,,,,,,,,,,,,,,,,,,,,,,,,,,,,,,,,,,,,,,,,,,,,,,,,,,,,,,,,,,,,,,,,,,,,,,,,,,,,,,,,,,,
html-keyboard-response,89,237130,0.0-3.0-5.0-2.0-1.19,CRGZ4TavntGH5E9LSBCX,223301,3,gY6qXF9uvTh4pZ4W0xiBwAUrnA,Bfv9y7h43Ts4FuNAQ82peNGlrb,,,,,,,,,,,,leapfrog_trial_feedback,,,,,"<p style=""font-size: 3em; color: green;"">You won <b>60</b> points.</p>",,,,,,,,,,,,,,,,,,,,,,,,,,,,,,,,,,,,,,,,,,,,,,,,,,,,,,,,,,,,,,,,,,,,,,,,,,,,,,,,,,,,,,,,,,,,,
survey-html-form,90,244714,0.0-3.0-5.0-3.0-0.0-0.0,CRGZ4TavntGH5E9LSBCX,223301,3,gY6qXF9uvTh4pZ4W0xiBwAUrnA,Bfv9y7h43Ts4FuNAQ82peNGlrb,,,,,,,,,,,,leapfrog_pt_trial_interblock_question,,7582.0,False,172.0,,{'prediction': '4'},,,,,,,,2.0,4.0,,,,,,,,,,,,,,,,,,,,,,,,,,,,,,,,,,,,,,,,,,,,,,,,,,,,,,,,,,,,,,,,,,,,,,,,,,,,,,,,,,,
html-keyboard-response,91,251113,0.0-3.0-5.0-3.0-0.0-1.0,CRGZ4TavntGH5E9LSBCX,223301,3,gY6qXF9uvTh4pZ4W0xiBwAUrnA,Bfv9y7h43Ts4FuNAQ82peNGlrb,,,,,,,,,,,,pt_trial_after_interblock,,6399.0,False,176.0,"<p>You will now complete another 40 practice trials.</p>
                            <p>During these trials you will <b>NOT</b> be able to see the points of each option. You have to discover this on your own.</p>
                            <hr><p>Now, please <b>place your right hand on the left and right arrow keys</b>.</p>
                            <p><i>Press the <b>spacebar</b> with your left hand whenever you are ready to continue!</i></p>", ,,,,,,,,,,,,,,,,,,,,,,,,,,,,,,,,,,,,,,,,,,,,,,,,,,,,,,,,,,,,,,,,,,,,,,,,,,,,,,,,,,,,,,,,,,,,
html-keyboard-response,92,251841,0.0-3.0-5.0-4.0-0.0,CRGZ4TavntGH5E9LSBCX,223301,3,gY6qXF9uvTh4pZ4W0xiBwAUrnA,Bfv9y7h43Ts4FuNAQ82peNGlrb,,,,,,,,,,,,leapfrog_pt_trial,,728.0,,,"<div style=""font-size:3em;"">CHOOSE</div>
                        <div id=""leapfrog_options_container"">
                            <div id=""option_A"">OPTION A<br><span>(left arrow)</span></div>
                            <div id=""option_B"">OPTION B<br><span>(right arrow)</span></div>
                        </div>",arrowright,True,2.0,40.0,50.0,60.0,60.0,B,,,,,,,,,,,,,,,,,,,,,,,,,,,,,,,,,,,,,,,,,,,,,,,,,,,,,,,,,,,,,,,,,,,,,,,,,,,,,,,,,,,,,
html-keyboard-response,93,252848,0.0-3.0-5.0-4.0-1.0,CRGZ4TavntGH5E9LSBCX,223301,3,gY6qXF9uvTh4pZ4W0xiBwAUrnA,Bfv9y7h43Ts4FuNAQ82peNGlrb,,,,,,,,,,,,leapfrog_trial_feedback,,,,,"<p style=""font-size: 3em; color: green;"">You won <b>60</b> points.</p>",,,,,,,,,,,,,,,,,,,,,,,,,,,,,,,,,,,,,,,,,,,,,,,,,,,,,,,,,,,,,,,,,,,,,,,,,,,,,,,,,,,,,,,,,,,,,
html-keyboard-response,94,253153,0.0-3.0-5.0-4.0-0.1,CRGZ4TavntGH5E9LSBCX,223301,3,gY6qXF9uvTh4pZ4W0xiBwAUrnA,Bfv9y7h43Ts4FuNAQ82peNGlrb,,,,,,,,,,,,leapfrog_pt_trial,,305.0,,,"<div style=""font-size:3em;"">CHOOSE</div>
                        <div id=""leapfrog_options_container"">
                            <div id=""option_A"">OPTION A<br><span>(left arrow)</span></div>
                            <div id=""option_B"">OPTION B<br><span>(right arrow)</span></div>
                        </div>",arrowright,True,2.0,41.0,50.0,60.0,60.0,B,,,,,,,,,,,,,,,,,,,,,,,,,,,,,,,,,,,,,,,,,,,,,,,,,,,,,,,,,,,,,,,,,,,,,,,,,,,,,,,,,,,,,
html-keyboard-response,95,254156,0.0-3.0-5.0-4.0-1.1,CRGZ4TavntGH5E9LSBCX,223301,3,gY6qXF9uvTh4pZ4W0xiBwAUrnA,Bfv9y7h43Ts4FuNAQ82peNGlrb,,,,,,,,,,,,leapfrog_trial_feedback,,,,,"<p style=""font-size: 3em; color: green;"">You won <b>60</b> points.</p>",,,,,,,,,,,,,,,,,,,,,,,,,,,,,,,,,,,,,,,,,,,,,,,,,,,,,,,,,,,,,,,,,,,,,,,,,,,,,,,,,,,,,,,,,,,,,
html-keyboard-response,96,254420,0.0-3.0-5.0-4.0-0.2,CRGZ4TavntGH5E9LSBCX,223301,3,gY6qXF9uvTh4pZ4W0xiBwAUrnA,Bfv9y7h43Ts4FuNAQ82peNGlrb,,,,,,,,,,,,leapfrog_pt_trial,,264.0,,,"<div style=""font-size:3em;"">CHOOSE</div>
                        <div id=""leapfrog_options_container"">
                            <div id=""option_A"">OPTION A<br><span>(left arrow)</span></div>
                            <div id=""option_B"">OPTION B<br><span>(right arrow)</span></div>
                        </div>",arrowright,True,2.0,42.0,50.0,60.0,60.0,B,,,,,,,,,,,,,,,,,,,,,,,,,,,,,,,,,,,,,,,,,,,,,,,,,,,,,,,,,,,,,,,,,,,,,,,,,,,,,,,,,,,,,
html-keyboard-response,97,255429,0.0-3.0-5.0-4.0-1.2,CRGZ4TavntGH5E9LSBCX,223301,3,gY6qXF9uvTh4pZ4W0xiBwAUrnA,Bfv9y7h43Ts4FuNAQ82peNGlrb,,,,,,,,,,,,leapfrog_trial_feedback,,,,,"<p style=""font-size: 3em; color: green;"">You won <b>60</b> points.</p>",,,,,,,,,,,,,,,,,,,,,,,,,,,,,,,,,,,,,,,,,,,,,,,,,,,,,,,,,,,,,,,,,,,,,,,,,,,,,,,,,,,,,,,,,,,,,
html-keyboard-response,98,255777,0.0-3.0-5.0-4.0-0.3,CRGZ4TavntGH5E9LSBCX,223301,3,gY6qXF9uvTh4pZ4W0xiBwAUrnA,Bfv9y7h43Ts4FuNAQ82peNGlrb,,,,,,,,,,,,leapfrog_pt_trial,,347.0,,,"<div style=""font-size:3em;"">CHOOSE</div>
                        <div id=""leapfrog_options_container"">
                            <div id=""option_A"">OPTION A<br><span>(left arrow)</span></div>
                            <div id=""option_B"">OPTION B<br><span>(right arrow)</span></div>
                        </div>",arrowright,True,2.0,43.0,50.0,60.0,60.0,B,,,,,,,,,,,,,,,,,,,,,,,,,,,,,,,,,,,,,,,,,,,,,,,,,,,,,,,,,,,,,,,,,,,,,,,,,,,,,,,,,,,,,
html-keyboard-response,99,256782,0.0-3.0-5.0-4.0-1.3,CRGZ4TavntGH5E9LSBCX,223301,3,gY6qXF9uvTh4pZ4W0xiBwAUrnA,Bfv9y7h43Ts4FuNAQ82peNGlrb,,,,,,,,,,,,leapfrog_trial_feedback,,,,,"<p style=""font-size: 3em; color: green;"">You won <b>60</b> points.</p>",,,,,,,,,,,,,,,,,,,,,,,,,,,,,,,,,,,,,,,,,,,,,,,,,,,,,,,,,,,,,,,,,,,,,,,,,,,,,,,,,,,,,,,,,,,,,
html-keyboard-response,100,257448,0.0-3.0-5.0-4.0-0.4,CRGZ4TavntGH5E9LSBCX,223301,3,gY6qXF9uvTh4pZ4W0xiBwAUrnA,Bfv9y7h43Ts4FuNAQ82peNGlrb,,,,,,,,,,,,leapfrog_pt_trial,,666.0,,,"<div style=""font-size:3em;"">CHOOSE</div>
                        <div id=""leapfrog_options_container"">
                            <div id=""option_A"">OPTION A<br><span>(left arrow)</span></div>
                            <div id=""option_B"">OPTION B<br><span>(right arrow)</span></div>
                        </div>",arrowright,True,2.0,44.0,50.0,60.0,60.0,B,,,,,,,,,,,,,,,,,,,,,,,,,,,,,,,,,,,,,,,,,,,,,,,,,,,,,,,,,,,,,,,,,,,,,,,,,,,,,,,,,,,,,
html-keyboard-response,101,258461,0.0-3.0-5.0-4.0-1.4,CRGZ4TavntGH5E9LSBCX,223301,3,gY6qXF9uvTh4pZ4W0xiBwAUrnA,Bfv9y7h43Ts4FuNAQ82peNGlrb,,,,,,,,,,,,leapfrog_trial_feedback,,,,,"<p style=""font-size: 3em; color: green;"">You won <b>60</b> points.</p>",,,,,,,,,,,,,,,,,,,,,,,,,,,,,,,,,,,,,,,,,,,,,,,,,,,,,,,,,,,,,,,,,,,,,,,,,,,,,,,,,,,,,,,,,,,,,
html-keyboard-response,102,258725,0.0-3.0-5.0-4.0-0.5,CRGZ4TavntGH5E9LSBCX,223301,3,gY6qXF9uvTh4pZ4W0xiBwAUrnA,Bfv9y7h43Ts4FuNAQ82peNGlrb,,,,,,,,,,,,leapfrog_pt_trial,,264.0,,,"<div style=""font-size:3em;"">CHOOSE</div>
                        <div id=""leapfrog_options_container"">
                            <div id=""option_A"">OPTION A<br><span>(left arrow)</span></div>
                            <div id=""option_B"">OPTION B<br><span>(right arrow)</span></div>
                        </div>",arrowright,True,2.0,45.0,50.0,60.0,60.0,B,,,,,,,,,,,,,,,,,,,,,,,,,,,,,,,,,,,,,,,,,,,,,,,,,,,,,,,,,,,,,,,,,,,,,,,,,,,,,,,,,,,,,
html-keyboard-response,103,259739,0.0-3.0-5.0-4.0-1.5,CRGZ4TavntGH5E9LSBCX,223301,3,gY6qXF9uvTh4pZ4W0xiBwAUrnA,Bfv9y7h43Ts4FuNAQ82peNGlrb,,,,,,,,,,,,leapfrog_trial_feedback,,,,,"<p style=""font-size: 3em; color: green;"">You won <b>60</b> points.</p>",,,,,,,,,,,,,,,,,,,,,,,,,,,,,,,,,,,,,,,,,,,,,,,,,,,,,,,,,,,,,,,,,,,,,,,,,,,,,,,,,,,,,,,,,,,,,
html-keyboard-response,104,260133,0.0-3.0-5.0-4.0-0.6,CRGZ4TavntGH5E9LSBCX,223301,3,gY6qXF9uvTh4pZ4W0xiBwAUrnA,Bfv9y7h43Ts4FuNAQ82peNGlrb,,,,,,,,,,,,leapfrog_pt_trial,,394.0,,,"<div style=""font-size:3em;"">CHOOSE</div>
                        <div id=""leapfrog_options_container"">
                            <div id=""option_A"">OPTION A<br><span>(left arrow)</span></div>
                            <div id=""option_B"">OPTION B<br><span>(right arrow)</span></div>
                        </div>",arrowleft,True,2.0,46.0,50.0,60.0,50.0,A,,,,,,,,,,,,,,,,,,,,,,,,,,,,,,,,,,,,,,,,,,,,,,,,,,,,,,,,,,,,,,,,,,,,,,,,,,,,,,,,,,,,,
html-keyboard-response,105,261139,0.0-3.0-5.0-4.0-1.6,CRGZ4TavntGH5E9LSBCX,223301,3,gY6qXF9uvTh4pZ4W0xiBwAUrnA,Bfv9y7h43Ts4FuNAQ82peNGlrb,,,,,,,,,,,,leapfrog_trial_feedback,,,,,"<p style=""font-size: 3em; color: green;"">You won <b>50</b> points.</p>",,,,,,,,,,,,,,,,,,,,,,,,,,,,,,,,,,,,,,,,,,,,,,,,,,,,,,,,,,,,,,,,,,,,,,,,,,,,,,,,,,,,,,,,,,,,,
html-keyboard-response,106,261498,0.0-3.0-5.0-4.0-0.7,CRGZ4TavntGH5E9LSBCX,223301,3,gY6qXF9uvTh4pZ4W0xiBwAUrnA,Bfv9y7h43Ts4FuNAQ82peNGlrb,,,,,,,,,,,,leapfrog_pt_trial,,359.0,,,"<div style=""font-size:3em;"">CHOOSE</div>
                        <div id=""leapfrog_options_container"">
                            <div id=""option_A"">OPTION A<br><span>(left arrow)</span></div>
                            <div id=""option_B"">OPTION B<br><span>(right arrow)</span></div>
                        </div>",arrowright,True,2.0,47.0,50.0,60.0,60.0,B,,,,,,,,,,,,,,,,,,,,,,,,,,,,,,,,,,,,,,,,,,,,,,,,,,,,,,,,,,,,,,,,,,,,,,,,,,,,,,,,,,,,,
html-keyboard-response,107,262510,0.0-3.0-5.0-4.0-1.7,CRGZ4TavntGH5E9LSBCX,223301,3,gY6qXF9uvTh4pZ4W0xiBwAUrnA,Bfv9y7h43Ts4FuNAQ82peNGlrb,,,,,,,,,,,,leapfrog_trial_feedback,,,,,"<p style=""font-size: 3em; color: green;"">You won <b>60</b> points.</p>",,,,,,,,,,,,,,,,,,,,,,,,,,,,,,,,,,,,,,,,,,,,,,,,,,,,,,,,,,,,,,,,,,,,,,,,,,,,,,,,,,,,,,,,,,,,,
html-keyboard-response,108,262885,0.0-3.0-5.0-4.0-0.8,CRGZ4TavntGH5E9LSBCX,223301,3,gY6qXF9uvTh4pZ4W0xiBwAUrnA,Bfv9y7h43Ts4FuNAQ82peNGlrb,,,,,,,,,,,,leapfrog_pt_trial,,375.0,,,"<div style=""font-size:3em;"">CHOOSE</div>
                        <div id=""leapfrog_options_container"">
                            <div id=""option_A"">OPTION A<br><span>(left arrow)</span></div>
                            <div id=""option_B"">OPTION B<br><span>(right arrow)</span></div>
                        </div>",arrowright,True,2.0,48.0,50.0,60.0,60.0,B,,,,,,,,,,,,,,,,,,,,,,,,,,,,,,,,,,,,,,,,,,,,,,,,,,,,,,,,,,,,,,,,,,,,,,,,,,,,,,,,,,,,,
html-keyboard-response,109,263902,0.0-3.0-5.0-4.0-1.8,CRGZ4TavntGH5E9LSBCX,223301,3,gY6qXF9uvTh4pZ4W0xiBwAUrnA,Bfv9y7h43Ts4FuNAQ82peNGlrb,,,,,,,,,,,,leapfrog_trial_feedback,,,,,"<p style=""font-size: 3em; color: green;"">You won <b>60</b> points.</p>",,,,,,,,,,,,,,,,,,,,,,,,,,,,,,,,,,,,,,,,,,,,,,,,,,,,,,,,,,,,,,,,,,,,,,,,,,,,,,,,,,,,,,,,,,,,,
html-keyboard-response,110,264217,0.0-3.0-5.0-4.0-0.9,CRGZ4TavntGH5E9LSBCX,223301,3,gY6qXF9uvTh4pZ4W0xiBwAUrnA,Bfv9y7h43Ts4FuNAQ82peNGlrb,,,,,,,,,,,,leapfrog_pt_trial,,315.0,,,"<div style=""font-size:3em;"">CHOOSE</div>
                        <div id=""leapfrog_options_container"">
                            <div id=""option_A"">OPTION A<br><span>(left arrow)</span></div>
                            <div id=""option_B"">OPTION B<br><span>(right arrow)</span></div>
                        </div>",arrowright,True,2.0,49.0,50.0,60.0,60.0,B,,,,,,,,,,,,,,,,,,,,,,,,,,,,,,,,,,,,,,,,,,,,,,,,,,,,,,,,,,,,,,,,,,,,,,,,,,,,,,,,,,,,,
html-keyboard-response,111,265220,0.0-3.0-5.0-4.0-1.9,CRGZ4TavntGH5E9LSBCX,223301,3,gY6qXF9uvTh4pZ4W0xiBwAUrnA,Bfv9y7h43Ts4FuNAQ82peNGlrb,,,,,,,,,,,,leapfrog_trial_feedback,,,,,"<p style=""font-size: 3em; color: green;"">You won <b>60</b> points.</p>",,,,,,,,,,,,,,,,,,,,,,,,,,,,,,,,,,,,,,,,,,,,,,,,,,,,,,,,,,,,,,,,,,,,,,,,,,,,,,,,,,,,,,,,,,,,,
html-keyboard-response,112,265493,0.0-3.0-5.0-4.0-0.10,CRGZ4TavntGH5E9LSBCX,223301,3,gY6qXF9uvTh4pZ4W0xiBwAUrnA,Bfv9y7h43Ts4FuNAQ82peNGlrb,,,,,,,,,,,,leapfrog_pt_trial,,273.0,,,"<div style=""font-size:3em;"">CHOOSE</div>
                        <div id=""leapfrog_options_container"">
                            <div id=""option_A"">OPTION A<br><span>(left arrow)</span></div>
                            <div id=""option_B"">OPTION B<br><span>(right arrow)</span></div>
                        </div>",arrowleft,True,2.0,50.0,50.0,60.0,50.0,A,,,,,,,,,,,,,,,,,,,,,,,,,,,,,,,,,,,,,,,,,,,,,,,,,,,,,,,,,,,,,,,,,,,,,,,,,,,,,,,,,,,,,
html-keyboard-response,113,266504,0.0-3.0-5.0-4.0-1.10,CRGZ4TavntGH5E9LSBCX,223301,3,gY6qXF9uvTh4pZ4W0xiBwAUrnA,Bfv9y7h43Ts4FuNAQ82peNGlrb,,,,,,,,,,,,leapfrog_trial_feedback,,,,,"<p style=""font-size: 3em; color: green;"">You won <b>50</b> points.</p>",,,,,,,,,,,,,,,,,,,,,,,,,,,,,,,,,,,,,,,,,,,,,,,,,,,,,,,,,,,,,,,,,,,,,,,,,,,,,,,,,,,,,,,,,,,,,
html-keyboard-response,114,266725,0.0-3.0-5.0-4.0-0.11,CRGZ4TavntGH5E9LSBCX,223301,3,gY6qXF9uvTh4pZ4W0xiBwAUrnA,Bfv9y7h43Ts4FuNAQ82peNGlrb,,,,,,,,,,,,leapfrog_pt_trial,,220.0,,,"<div style=""font-size:3em;"">CHOOSE</div>
                        <div id=""leapfrog_options_container"">
                            <div id=""option_A"">OPTION A<br><span>(left arrow)</span></div>
                            <div id=""option_B"">OPTION B<br><span>(right arrow)</span></div>
                        </div>",arrowright,True,2.0,51.0,50.0,60.0,60.0,B,,,,,,,,,,,,,,,,,,,,,,,,,,,,,,,,,,,,,,,,,,,,,,,,,,,,,,,,,,,,,,,,,,,,,,,,,,,,,,,,,,,,,
html-keyboard-response,115,267736,0.0-3.0-5.0-4.0-1.11,CRGZ4TavntGH5E9LSBCX,223301,3,gY6qXF9uvTh4pZ4W0xiBwAUrnA,Bfv9y7h43Ts4FuNAQ82peNGlrb,,,,,,,,,,,,leapfrog_trial_feedback,,,,,"<p style=""font-size: 3em; color: green;"">You won <b>60</b> points.</p>",,,,,,,,,,,,,,,,,,,,,,,,,,,,,,,,,,,,,,,,,,,,,,,,,,,,,,,,,,,,,,,,,,,,,,,,,,,,,,,,,,,,,,,,,,,,,
html-keyboard-response,116,267973,0.0-3.0-5.0-4.0-0.12,CRGZ4TavntGH5E9LSBCX,223301,3,gY6qXF9uvTh4pZ4W0xiBwAUrnA,Bfv9y7h43Ts4FuNAQ82peNGlrb,,,,,,,,,,,,leapfrog_pt_trial,,236.0,,,"<div style=""font-size:3em;"">CHOOSE</div>
                        <div id=""leapfrog_options_container"">
                            <div id=""option_A"">OPTION A<br><span>(left arrow)</span></div>
                            <div id=""option_B"">OPTION B<br><span>(right arrow)</span></div>
                        </div>",arrowright,True,2.0,52.0,50.0,60.0,60.0,B,,,,,,,,,,,,,,,,,,,,,,,,,,,,,,,,,,,,,,,,,,,,,,,,,,,,,,,,,,,,,,,,,,,,,,,,,,,,,,,,,,,,,
html-keyboard-response,117,268977,0.0-3.0-5.0-4.0-1.12,CRGZ4TavntGH5E9LSBCX,223301,3,gY6qXF9uvTh4pZ4W0xiBwAUrnA,Bfv9y7h43Ts4FuNAQ82peNGlrb,,,,,,,,,,,,leapfrog_trial_feedback,,,,,"<p style=""font-size: 3em; color: green;"">You won <b>60</b> points.</p>",,,,,,,,,,,,,,,,,,,,,,,,,,,,,,,,,,,,,,,,,,,,,,,,,,,,,,,,,,,,,,,,,,,,,,,,,,,,,,,,,,,,,,,,,,,,,
html-keyboard-response,118,269200,0.0-3.0-5.0-4.0-0.13,CRGZ4TavntGH5E9LSBCX,223301,3,gY6qXF9uvTh4pZ4W0xiBwAUrnA,Bfv9y7h43Ts4FuNAQ82peNGlrb,,,,,,,,,,,,leapfrog_pt_trial,,223.0,,,"<div style=""font-size:3em;"">CHOOSE</div>
                        <div id=""leapfrog_options_container"">
                            <div id=""option_A"">OPTION A<br><span>(left arrow)</span></div>
                            <div id=""option_B"">OPTION B<br><span>(right arrow)</span></div>
                        </div>",arrowright,True,2.0,53.0,50.0,60.0,60.0,B,,,,,,,,,,,,,,,,,,,,,,,,,,,,,,,,,,,,,,,,,,,,,,,,,,,,,,,,,,,,,,,,,,,,,,,,,,,,,,,,,,,,,
html-keyboard-response,119,270210,0.0-3.0-5.0-4.0-1.13,CRGZ4TavntGH5E9LSBCX,223301,3,gY6qXF9uvTh4pZ4W0xiBwAUrnA,Bfv9y7h43Ts4FuNAQ82peNGlrb,,,,,,,,,,,,leapfrog_trial_feedback,,,,,"<p style=""font-size: 3em; color: green;"">You won <b>60</b> points.</p>",,,,,,,,,,,,,,,,,,,,,,,,,,,,,,,,,,,,,,,,,,,,,,,,,,,,,,,,,,,,,,,,,,,,,,,,,,,,,,,,,,,,,,,,,,,,,
html-keyboard-response,120,270476,0.0-3.0-5.0-4.0-0.14,CRGZ4TavntGH5E9LSBCX,223301,3,gY6qXF9uvTh4pZ4W0xiBwAUrnA,Bfv9y7h43Ts4FuNAQ82peNGlrb,,,,,,,,,,,,leapfrog_pt_trial,,264.0,,,"<div style=""font-size:3em;"">CHOOSE</div>
                        <div id=""leapfrog_options_container"">
                            <div id=""option_A"">OPTION A<br><span>(left arrow)</span></div>
                            <div id=""option_B"">OPTION B<br><span>(right arrow)</span></div>
                        </div>",arrowright,True,2.0,54.0,50.0,60.0,60.0,B,,,,,,,,,,,,,,,,,,,,,,,,,,,,,,,,,,,,,,,,,,,,,,,,,,,,,,,,,,,,,,,,,,,,,,,,,,,,,,,,,,,,,
html-keyboard-response,121,271478,0.0-3.0-5.0-4.0-1.14,CRGZ4TavntGH5E9LSBCX,223301,3,gY6qXF9uvTh4pZ4W0xiBwAUrnA,Bfv9y7h43Ts4FuNAQ82peNGlrb,,,,,,,,,,,,leapfrog_trial_feedback,,,,,"<p style=""font-size: 3em; color: green;"">You won <b>60</b> points.</p>",,,,,,,,,,,,,,,,,,,,,,,,,,,,,,,,,,,,,,,,,,,,,,,,,,,,,,,,,,,,,,,,,,,,,,,,,,,,,,,,,,,,,,,,,,,,,
html-keyboard-response,122,271518,0.0-3.0-5.0-4.0-0.15,CRGZ4TavntGH5E9LSBCX,223301,3,gY6qXF9uvTh4pZ4W0xiBwAUrnA,Bfv9y7h43Ts4FuNAQ82peNGlrb,,,,,,,,,,,,leapfrog_pt_trial,,39.0,,,"<div style=""font-size:3em;"">CHOOSE</div>
                        <div id=""leapfrog_options_container"">
                            <div id=""option_A"">OPTION A<br><span>(left arrow)</span></div>
                            <div id=""option_B"">OPTION B<br><span>(right arrow)</span></div>
                        </div>",arrowleft,True,2.0,55.0,50.0,60.0,50.0,A,,,,,,,,,,,,,,,,,,,,,,,,,,,,,,,,,,,,,,,,,,,,,,,,,,,,,,,,,,,,,,,,,,,,,,,,,,,,,,,,,,,,,
html-keyboard-response,123,272521,0.0-3.0-5.0-4.0-1.15,CRGZ4TavntGH5E9LSBCX,223301,3,gY6qXF9uvTh4pZ4W0xiBwAUrnA,Bfv9y7h43Ts4FuNAQ82peNGlrb,,,,,,,,,,,,leapfrog_trial_feedback,,,,,"<p style=""font-size: 3em; color: green;"">You won <b>50</b> points.</p>",,,,,,,,,,,,,,,,,,,,,,,,,,,,,,,,,,,,,,,,,,,,,,,,,,,,,,,,,,,,,,,,,,,,,,,,,,,,,,,,,,,,,,,,,,,,,
html-keyboard-response,124,272817,0.0-3.0-5.0-4.0-0.16,CRGZ4TavntGH5E9LSBCX,223301,3,gY6qXF9uvTh4pZ4W0xiBwAUrnA,Bfv9y7h43Ts4FuNAQ82peNGlrb,,,,,,,,,,,,leapfrog_pt_trial,,295.0,,,"<div style=""font-size:3em;"">CHOOSE</div>
                        <div id=""leapfrog_options_container"">
                            <div id=""option_A"">OPTION A<br><span>(left arrow)</span></div>
                            <div id=""option_B"">OPTION B<br><span>(right arrow)</span></div>
                        </div>",arrowright,True,2.0,56.0,50.0,60.0,60.0,B,,,,,,,,,,,,,,,,,,,,,,,,,,,,,,,,,,,,,,,,,,,,,,,,,,,,,,,,,,,,,,,,,,,,,,,,,,,,,,,,,,,,,
html-keyboard-response,125,273831,0.0-3.0-5.0-4.0-1.16,CRGZ4TavntGH5E9LSBCX,223301,3,gY6qXF9uvTh4pZ4W0xiBwAUrnA,Bfv9y7h43Ts4FuNAQ82peNGlrb,,,,,,,,,,,,leapfrog_trial_feedback,,,,,"<p style=""font-size: 3em; color: green;"">You won <b>60</b> points.</p>",,,,,,,,,,,,,,,,,,,,,,,,,,,,,,,,,,,,,,,,,,,,,,,,,,,,,,,,,,,,,,,,,,,,,,,,,,,,,,,,,,,,,,,,,,,,,
html-keyboard-response,126,274140,0.0-3.0-5.0-4.0-0.17,CRGZ4TavntGH5E9LSBCX,223301,3,gY6qXF9uvTh4pZ4W0xiBwAUrnA,Bfv9y7h43Ts4FuNAQ82peNGlrb,,,,,,,,,,,,leapfrog_pt_trial,,309.0,,,"<div style=""font-size:3em;"">CHOOSE</div>
                        <div id=""leapfrog_options_container"">
                            <div id=""option_A"">OPTION A<br><span>(left arrow)</span></div>
                            <div id=""option_B"">OPTION B<br><span>(right arrow)</span></div>
                        </div>",arrowright,True,2.0,57.0,50.0,60.0,60.0,B,,,,,,,,,,,,,,,,,,,,,,,,,,,,,,,,,,,,,,,,,,,,,,,,,,,,,,,,,,,,,,,,,,,,,,,,,,,,,,,,,,,,,
html-keyboard-response,127,275144,0.0-3.0-5.0-4.0-1.17,CRGZ4TavntGH5E9LSBCX,223301,3,gY6qXF9uvTh4pZ4W0xiBwAUrnA,Bfv9y7h43Ts4FuNAQ82peNGlrb,,,,,,,,,,,,leapfrog_trial_feedback,,,,,"<p style=""font-size: 3em; color: green;"">You won <b>60</b> points.</p>",,,,,,,,,,,,,,,,,,,,,,,,,,,,,,,,,,,,,,,,,,,,,,,,,,,,,,,,,,,,,,,,,,,,,,,,,,,,,,,,,,,,,,,,,,,,,
html-keyboard-response,128,275372,0.0-3.0-5.0-4.0-0.18,CRGZ4TavntGH5E9LSBCX,223301,3,gY6qXF9uvTh4pZ4W0xiBwAUrnA,Bfv9y7h43Ts4FuNAQ82peNGlrb,,,,,,,,,,,,leapfrog_pt_trial,,228.0,,,"<div style=""font-size:3em;"">CHOOSE</div>
                        <div id=""leapfrog_options_container"">
                            <div id=""option_A"">OPTION A<br><span>(left arrow)</span></div>
                            <div id=""option_B"">OPTION B<br><span>(right arrow)</span></div>
                        </div>",arrowright,True,2.0,58.0,50.0,60.0,60.0,B,,,,,,,,,,,,,,,,,,,,,,,,,,,,,,,,,,,,,,,,,,,,,,,,,,,,,,,,,,,,,,,,,,,,,,,,,,,,,,,,,,,,,
html-keyboard-response,129,276376,0.0-3.0-5.0-4.0-1.18,CRGZ4TavntGH5E9LSBCX,223301,3,gY6qXF9uvTh4pZ4W0xiBwAUrnA,Bfv9y7h43Ts4FuNAQ82peNGlrb,,,,,,,,,,,,leapfrog_trial_feedback,,,,,"<p style=""font-size: 3em; color: green;"">You won <b>60</b> points.</p>",,,,,,,,,,,,,,,,,,,,,,,,,,,,,,,,,,,,,,,,,,,,,,,,,,,,,,,,,,,,,,,,,,,,,,,,,,,,,,,,,,,,,,,,,,,,,
html-keyboard-response,130,276549,0.0-3.0-5.0-4.0-0.19,CRGZ4TavntGH5E9LSBCX,223301,3,gY6qXF9uvTh4pZ4W0xiBwAUrnA,Bfv9y7h43Ts4FuNAQ82peNGlrb,,,,,,,,,,,,leapfrog_pt_trial,,172.0,,,"<div style=""font-size:3em;"">CHOOSE</div>
                        <div id=""leapfrog_options_container"">
                            <div id=""option_A"">OPTION A<br><span>(left arrow)</span></div>
                            <div id=""option_B"">OPTION B<br><span>(right arrow)</span></div>
                        </div>",arrowright,True,2.0,59.0,70.0,60.0,60.0,B,,,,,,,,,,,,,,,,,,,,,,,,,,,,,,,,,,,,,,,,,,,,,,,,,,,,,,,,,,,,,,,,,,,,,,,,,,,,,,,,,,,,,
html-keyboard-response,131,277557,0.0-3.0-5.0-4.0-1.19,CRGZ4TavntGH5E9LSBCX,223301,3,gY6qXF9uvTh4pZ4W0xiBwAUrnA,Bfv9y7h43Ts4FuNAQ82peNGlrb,,,,,,,,,,,,leapfrog_trial_feedback,,,,,"<p style=""font-size: 3em; color: green;"">You won <b>60</b> points.</p>",,,,,,,,,,,,,,,,,,,,,,,,,,,,,,,,,,,,,,,,,,,,,,,,,,,,,,,,,,,,,,,,,,,,,,,,,,,,,,,,,,,,,,,,,,,,,
survey-html-form,132,283513,0.0-3.0-5.0-5.0-0.0-0.0,CRGZ4TavntGH5E9LSBCX,223301,3,gY6qXF9uvTh4pZ4W0xiBwAUrnA,Bfv9y7h43Ts4FuNAQ82peNGlrb,,,,,,,,,,,,leapfrog_pt_trial_interblock_question,,5955.0,False,237.0,,{'prediction': '2'},,,,,,,,3.0,2.0,,,,,,,,,,,,,,,,,,,,,,,,,,,,,,,,,,,,,,,,,,,,,,,,,,,,,,,,,,,,,,,,,,,,,,,,,,,,,,,,,,,
html-keyboard-response,133,288020,0.0-3.0-5.0-5.0-0.0-1.0,CRGZ4TavntGH5E9LSBCX,223301,3,gY6qXF9uvTh4pZ4W0xiBwAUrnA,Bfv9y7h43Ts4FuNAQ82peNGlrb,,,,,,,,,,,,pt_trial_after_interblock,,4506.0,False,241.0,"<p>Now, please <b>place your right hand on the left and right arrow keys</b>.</p>
                            <p><i>Press the <b>spacebar</b> with your left hand whenever you are ready to continue!</i></p>", ,,,,,,,,,,,,,,,,,,,,,,,,,,,,,,,,,,,,,,,,,,,,,,,,,,,,,,,,,,,,,,,,,,,,,,,,,,,,,,,,,,,,,,,,,,,,
html-keyboard-response,134,288304,0.0-3.0-5.0-6.0-0.0,CRGZ4TavntGH5E9LSBCX,223301,3,gY6qXF9uvTh4pZ4W0xiBwAUrnA,Bfv9y7h43Ts4FuNAQ82peNGlrb,,,,,,,,,,,,leapfrog_pt_trial,,284.0,,,"<div style=""font-size:3em;"">CHOOSE</div>
                        <div id=""leapfrog_options_container"">
                            <div id=""option_A"">OPTION A<br><span>(left arrow)</span></div>
                            <div id=""option_B"">OPTION B<br><span>(right arrow)</span></div>
                        </div>",arrowleft,True,3.0,60.0,70.0,60.0,70.0,A,,,,,,,,,,,,,,,,,,,,,,,,,,,,,,,,,,,,,,,,,,,,,,,,,,,,,,,,,,,,,,,,,,,,,,,,,,,,,,,,,,,,,
html-keyboard-response,135,289318,0.0-3.0-5.0-6.0-1.0,CRGZ4TavntGH5E9LSBCX,223301,3,gY6qXF9uvTh4pZ4W0xiBwAUrnA,Bfv9y7h43Ts4FuNAQ82peNGlrb,,,,,,,,,,,,leapfrog_trial_feedback,,,,,"<p style=""font-size: 3em; color: green;"">You won <b>70</b> points.</p>",,,,,,,,,,,,,,,,,,,,,,,,,,,,,,,,,,,,,,,,,,,,,,,,,,,,,,,,,,,,,,,,,,,,,,,,,,,,,,,,,,,,,,,,,,,,,
html-keyboard-response,136,289581,0.0-3.0-5.0-6.0-0.1,CRGZ4TavntGH5E9LSBCX,223301,3,gY6qXF9uvTh4pZ4W0xiBwAUrnA,Bfv9y7h43Ts4FuNAQ82peNGlrb,,,,,,,,,,,,leapfrog_pt_trial,,262.0,,,"<div style=""font-size:3em;"">CHOOSE</div>
                        <div id=""leapfrog_options_container"">
                            <div id=""option_A"">OPTION A<br><span>(left arrow)</span></div>
                            <div id=""option_B"">OPTION B<br><span>(right arrow)</span></div>
                        </div>",arrowleft,True,3.0,61.0,70.0,60.0,70.0,A,,,,,,,,,,,,,,,,,,,,,,,,,,,,,,,,,,,,,,,,,,,,,,,,,,,,,,,,,,,,,,,,,,,,,,,,,,,,,,,,,,,,,
html-keyboard-response,137,290588,0.0-3.0-5.0-6.0-1.1,CRGZ4TavntGH5E9LSBCX,223301,3,gY6qXF9uvTh4pZ4W0xiBwAUrnA,Bfv9y7h43Ts4FuNAQ82peNGlrb,,,,,,,,,,,,leapfrog_trial_feedback,,,,,"<p style=""font-size: 3em; color: green;"">You won <b>70</b> points.</p>",,,,,,,,,,,,,,,,,,,,,,,,,,,,,,,,,,,,,,,,,,,,,,,,,,,,,,,,,,,,,,,,,,,,,,,,,,,,,,,,,,,,,,,,,,,,,
html-keyboard-response,138,290809,0.0-3.0-5.0-6.0-0.2,CRGZ4TavntGH5E9LSBCX,223301,3,gY6qXF9uvTh4pZ4W0xiBwAUrnA,Bfv9y7h43Ts4FuNAQ82peNGlrb,,,,,,,,,,,,leapfrog_pt_trial,,220.0,,,"<div style=""font-size:3em;"">CHOOSE</div>
                        <div id=""leapfrog_options_container"">
                            <div id=""option_A"">OPTION A<br><span>(left arrow)</span></div>
                            <div id=""option_B"">OPTION B<br><span>(right arrow)</span></div>
                        </div>",arrowleft,True,3.0,62.0,70.0,60.0,70.0,A,,,,,,,,,,,,,,,,,,,,,,,,,,,,,,,,,,,,,,,,,,,,,,,,,,,,,,,,,,,,,,,,,,,,,,,,,,,,,,,,,,,,,
html-keyboard-response,139,291813,0.0-3.0-5.0-6.0-1.2,CRGZ4TavntGH5E9LSBCX,223301,3,gY6qXF9uvTh4pZ4W0xiBwAUrnA,Bfv9y7h43Ts4FuNAQ82peNGlrb,,,,,,,,,,,,leapfrog_trial_feedback,,,,,"<p style=""font-size: 3em; color: green;"">You won <b>70</b> points.</p>",,,,,,,,,,,,,,,,,,,,,,,,,,,,,,,,,,,,,,,,,,,,,,,,,,,,,,,,,,,,,,,,,,,,,,,,,,,,,,,,,,,,,,,,,,,,,
html-keyboard-response,140,291973,0.0-3.0-5.0-6.0-0.3,CRGZ4TavntGH5E9LSBCX,223301,3,gY6qXF9uvTh4pZ4W0xiBwAUrnA,Bfv9y7h43Ts4FuNAQ82peNGlrb,,,,,,,,,,,,leapfrog_pt_trial,,160.0,,,"<div style=""font-size:3em;"">CHOOSE</div>
                        <div id=""leapfrog_options_container"">
                            <div id=""option_A"">OPTION A<br><span>(left arrow)</span></div>
                            <div id=""option_B"">OPTION B<br><span>(right arrow)</span></div>
                        </div>",arrowleft,True,3.0,63.0,70.0,60.0,70.0,A,,,,,,,,,,,,,,,,,,,,,,,,,,,,,,,,,,,,,,,,,,,,,,,,,,,,,,,,,,,,,,,,,,,,,,,,,,,,,,,,,,,,,
html-keyboard-response,141,292987,0.0-3.0-5.0-6.0-1.3,CRGZ4TavntGH5E9LSBCX,223301,3,gY6qXF9uvTh4pZ4W0xiBwAUrnA,Bfv9y7h43Ts4FuNAQ82peNGlrb,,,,,,,,,,,,leapfrog_trial_feedback,,,,,"<p style=""font-size: 3em; color: green;"">You won <b>70</b> points.</p>",,,,,,,,,,,,,,,,,,,,,,,,,,,,,,,,,,,,,,,,,,,,,,,,,,,,,,,,,,,,,,,,,,,,,,,,,,,,,,,,,,,,,,,,,,,,,
html-keyboard-response,142,293116,0.0-3.0-5.0-6.0-0.4,CRGZ4TavntGH5E9LSBCX,223301,3,gY6qXF9uvTh4pZ4W0xiBwAUrnA,Bfv9y7h43Ts4FuNAQ82peNGlrb,,,,,,,,,,,,leapfrog_pt_trial,,129.0,,,"<div style=""font-size:3em;"">CHOOSE</div>
                        <div id=""leapfrog_options_container"">
                            <div id=""option_A"">OPTION A<br><span>(left arrow)</span></div>
                            <div id=""option_B"">OPTION B<br><span>(right arrow)</span></div>
                        </div>",arrowleft,True,3.0,64.0,70.0,60.0,70.0,A,,,,,,,,,,,,,,,,,,,,,,,,,,,,,,,,,,,,,,,,,,,,,,,,,,,,,,,,,,,,,,,,,,,,,,,,,,,,,,,,,,,,,
html-keyboard-response,143,294131,0.0-3.0-5.0-6.0-1.4,CRGZ4TavntGH5E9LSBCX,223301,3,gY6qXF9uvTh4pZ4W0xiBwAUrnA,Bfv9y7h43Ts4FuNAQ82peNGlrb,,,,,,,,,,,,leapfrog_trial_feedback,,,,,"<p style=""font-size: 3em; color: green;"">You won <b>70</b> points.</p>",,,,,,,,,,,,,,,,,,,,,,,,,,,,,,,,,,,,,,,,,,,,,,,,,,,,,,,,,,,,,,,,,,,,,,,,,,,,,,,,,,,,,,,,,,,,,
html-keyboard-response,144,294253,0.0-3.0-5.0-6.0-0.5,CRGZ4TavntGH5E9LSBCX,223301,3,gY6qXF9uvTh4pZ4W0xiBwAUrnA,Bfv9y7h43Ts4FuNAQ82peNGlrb,,,,,,,,,,,,leapfrog_pt_trial,,122.0,,,"<div style=""font-size:3em;"">CHOOSE</div>
                        <div id=""leapfrog_options_container"">
                            <div id=""option_A"">OPTION A<br><span>(left arrow)</span></div>
                            <div id=""option_B"">OPTION B<br><span>(right arrow)</span></div>
                        </div>",arrowleft,True,3.0,65.0,70.0,60.0,70.0,A,,,,,,,,,,,,,,,,,,,,,,,,,,,,,,,,,,,,,,,,,,,,,,,,,,,,,,,,,,,,,,,,,,,,,,,,,,,,,,,,,,,,,
html-keyboard-response,145,295255,0.0-3.0-5.0-6.0-1.5,CRGZ4TavntGH5E9LSBCX,223301,3,gY6qXF9uvTh4pZ4W0xiBwAUrnA,Bfv9y7h43Ts4FuNAQ82peNGlrb,,,,,,,,,,,,leapfrog_trial_feedback,,,,,"<p style=""font-size: 3em; color: green;"">You won <b>70</b> points.</p>",,,,,,,,,,,,,,,,,,,,,,,,,,,,,,,,,,,,,,,,,,,,,,,,,,,,,,,,,,,,,,,,,,,,,,,,,,,,,,,,,,,,,,,,,,,,,
html-keyboard-response,146,295461,0.0-3.0-5.0-6.0-0.6,CRGZ4TavntGH5E9LSBCX,223301,3,gY6qXF9uvTh4pZ4W0xiBwAUrnA,Bfv9y7h43Ts4FuNAQ82peNGlrb,,,,,,,,,,,,leapfrog_pt_trial,,206.0,,,"<div style=""font-size:3em;"">CHOOSE</div>
                        <div id=""leapfrog_options_container"">
                            <div id=""option_A"">OPTION A<br><span>(left arrow)</span></div>
                            <div id=""option_B"">OPTION B<br><span>(right arrow)</span></div>
                        </div>",arrowleft,True,3.0,66.0,70.0,60.0,70.0,A,,,,,,,,,,,,,,,,,,,,,,,,,,,,,,,,,,,,,,,,,,,,,,,,,,,,,,,,,,,,,,,,,,,,,,,,,,,,,,,,,,,,,
html-keyboard-response,147,296467,0.0-3.0-5.0-6.0-1.6,CRGZ4TavntGH5E9LSBCX,223301,3,gY6qXF9uvTh4pZ4W0xiBwAUrnA,Bfv9y7h43Ts4FuNAQ82peNGlrb,,,,,,,,,,,,leapfrog_trial_feedback,,,,,"<p style=""font-size: 3em; color: green;"">You won <b>70</b> points.</p>",,,,,,,,,,,,,,,,,,,,,,,,,,,,,,,,,,,,,,,,,,,,,,,,,,,,,,,,,,,,,,,,,,,,,,,,,,,,,,,,,,,,,,,,,,,,,
html-keyboard-response,148,296676,0.0-3.0-5.0-6.0-0.7,CRGZ4TavntGH5E9LSBCX,223301,3,gY6qXF9uvTh4pZ4W0xiBwAUrnA,Bfv9y7h43Ts4FuNAQ82peNGlrb,,,,,,,,,,,,leapfrog_pt_trial,,209.0,,,"<div style=""font-size:3em;"">CHOOSE</div>
                        <div id=""leapfrog_options_container"">
                            <div id=""option_A"">OPTION A<br><span>(left arrow)</span></div>
                            <div id=""option_B"">OPTION B<br><span>(right arrow)</span></div>
                        </div>",arrowleft,True,3.0,67.0,70.0,60.0,70.0,A,,,,,,,,,,,,,,,,,,,,,,,,,,,,,,,,,,,,,,,,,,,,,,,,,,,,,,,,,,,,,,,,,,,,,,,,,,,,,,,,,,,,,
html-keyboard-response,149,297684,0.0-3.0-5.0-6.0-1.7,CRGZ4TavntGH5E9LSBCX,223301,3,gY6qXF9uvTh4pZ4W0xiBwAUrnA,Bfv9y7h43Ts4FuNAQ82peNGlrb,,,,,,,,,,,,leapfrog_trial_feedback,,,,,"<p style=""font-size: 3em; color: green;"">You won <b>70</b> points.</p>",,,,,,,,,,,,,,,,,,,,,,,,,,,,,,,,,,,,,,,,,,,,,,,,,,,,,,,,,,,,,,,,,,,,,,,,,,,,,,,,,,,,,,,,,,,,,
html-keyboard-response,150,297905,0.0-3.0-5.0-6.0-0.8,CRGZ4TavntGH5E9LSBCX,223301,3,gY6qXF9uvTh4pZ4W0xiBwAUrnA,Bfv9y7h43Ts4FuNAQ82peNGlrb,,,,,,,,,,,,leapfrog_pt_trial,,221.0,,,"<div style=""font-size:3em;"">CHOOSE</div>
                        <div id=""leapfrog_options_container"">
                            <div id=""option_A"">OPTION A<br><span>(left arrow)</span></div>
                            <div id=""option_B"">OPTION B<br><span>(right arrow)</span></div>
                        </div>",arrowleft,True,3.0,68.0,70.0,60.0,70.0,A,,,,,,,,,,,,,,,,,,,,,,,,,,,,,,,,,,,,,,,,,,,,,,,,,,,,,,,,,,,,,,,,,,,,,,,,,,,,,,,,,,,,,
html-keyboard-response,151,298914,0.0-3.0-5.0-6.0-1.8,CRGZ4TavntGH5E9LSBCX,223301,3,gY6qXF9uvTh4pZ4W0xiBwAUrnA,Bfv9y7h43Ts4FuNAQ82peNGlrb,,,,,,,,,,,,leapfrog_trial_feedback,,,,,"<p style=""font-size: 3em; color: green;"">You won <b>70</b> points.</p>",,,,,,,,,,,,,,,,,,,,,,,,,,,,,,,,,,,,,,,,,,,,,,,,,,,,,,,,,,,,,,,,,,,,,,,,,,,,,,,,,,,,,,,,,,,,,
html-keyboard-response,152,299209,0.0-3.0-5.0-6.0-0.9,CRGZ4TavntGH5E9LSBCX,223301,3,gY6qXF9uvTh4pZ4W0xiBwAUrnA,Bfv9y7h43Ts4FuNAQ82peNGlrb,,,,,,,,,,,,leapfrog_pt_trial,,294.0,,,"<div style=""font-size:3em;"">CHOOSE</div>
                        <div id=""leapfrog_options_container"">
                            <div id=""option_A"">OPTION A<br><span>(left arrow)</span></div>
                            <div id=""option_B"">OPTION B<br><span>(right arrow)</span></div>
                        </div>",arrowleft,True,3.0,69.0,70.0,60.0,70.0,A,,,,,,,,,,,,,,,,,,,,,,,,,,,,,,,,,,,,,,,,,,,,,,,,,,,,,,,,,,,,,,,,,,,,,,,,,,,,,,,,,,,,,
html-keyboard-response,153,300223,0.0-3.0-5.0-6.0-1.9,CRGZ4TavntGH5E9LSBCX,223301,3,gY6qXF9uvTh4pZ4W0xiBwAUrnA,Bfv9y7h43Ts4FuNAQ82peNGlrb,,,,,,,,,,,,leapfrog_trial_feedback,,,,,"<p style=""font-size: 3em; color: green;"">You won <b>70</b> points.</p>",,,,,,,,,,,,,,,,,,,,,,,,,,,,,,,,,,,,,,,,,,,,,,,,,,,,,,,,,,,,,,,,,,,,,,,,,,,,,,,,,,,,,,,,,,,,,
html-keyboard-response,154,300329,0.0-3.0-5.0-6.0-0.10,CRGZ4TavntGH5E9LSBCX,223301,3,gY6qXF9uvTh4pZ4W0xiBwAUrnA,Bfv9y7h43Ts4FuNAQ82peNGlrb,,,,,,,,,,,,leapfrog_pt_trial,,105.0,,,"<div style=""font-size:3em;"">CHOOSE</div>
                        <div id=""leapfrog_options_container"">
                            <div id=""option_A"">OPTION A<br><span>(left arrow)</span></div>
                            <div id=""option_B"">OPTION B<br><span>(right arrow)</span></div>
                        </div>",arrowright,True,3.0,70.0,70.0,80.0,80.0,B,,,,,,,,,,,,,,,,,,,,,,,,,,,,,,,,,,,,,,,,,,,,,,,,,,,,,,,,,,,,,,,,,,,,,,,,,,,,,,,,,,,,,
html-keyboard-response,155,301337,0.0-3.0-5.0-6.0-1.10,CRGZ4TavntGH5E9LSBCX,223301,3,gY6qXF9uvTh4pZ4W0xiBwAUrnA,Bfv9y7h43Ts4FuNAQ82peNGlrb,,,,,,,,,,,,leapfrog_trial_feedback,,,,,"<p style=""font-size: 3em; color: green;"">You won <b>80</b> points.</p>",,,,,,,,,,,,,,,,,,,,,,,,,,,,,,,,,,,,,,,,,,,,,,,,,,,,,,,,,,,,,,,,,,,,,,,,,,,,,,,,,,,,,,,,,,,,,
html-keyboard-response,156,301589,0.0-3.0-5.0-6.0-0.11,CRGZ4TavntGH5E9LSBCX,223301,3,gY6qXF9uvTh4pZ4W0xiBwAUrnA,Bfv9y7h43Ts4FuNAQ82peNGlrb,,,,,,,,,,,,leapfrog_pt_trial,,252.0,,,"<div style=""font-size:3em;"">CHOOSE</div>
                        <div id=""leapfrog_options_container"">
                            <div id=""option_A"">OPTION A<br><span>(left arrow)</span></div>
                            <div id=""option_B"">OPTION B<br><span>(right arrow)</span></div>
                        </div>",arrowright,True,3.0,71.0,70.0,80.0,80.0,B,,,,,,,,,,,,,,,,,,,,,,,,,,,,,,,,,,,,,,,,,,,,,,,,,,,,,,,,,,,,,,,,,,,,,,,,,,,,,,,,,,,,,
html-keyboard-response,157,302594,0.0-3.0-5.0-6.0-1.11,CRGZ4TavntGH5E9LSBCX,223301,3,gY6qXF9uvTh4pZ4W0xiBwAUrnA,Bfv9y7h43Ts4FuNAQ82peNGlrb,,,,,,,,,,,,leapfrog_trial_feedback,,,,,"<p style=""font-size: 3em; color: green;"">You won <b>80</b> points.</p>",,,,,,,,,,,,,,,,,,,,,,,,,,,,,,,,,,,,,,,,,,,,,,,,,,,,,,,,,,,,,,,,,,,,,,,,,,,,,,,,,,,,,,,,,,,,,
html-keyboard-response,158,302673,0.0-3.0-5.0-6.0-0.12,CRGZ4TavntGH5E9LSBCX,223301,3,gY6qXF9uvTh4pZ4W0xiBwAUrnA,Bfv9y7h43Ts4FuNAQ82peNGlrb,,,,,,,,,,,,leapfrog_pt_trial,,78.0,,,"<div style=""font-size:3em;"">CHOOSE</div>
                        <div id=""leapfrog_options_container"">
                            <div id=""option_A"">OPTION A<br><span>(left arrow)</span></div>
                            <div id=""option_B"">OPTION B<br><span>(right arrow)</span></div>
                        </div>",arrowright,True,3.0,72.0,90.0,80.0,80.0,B,,,,,,,,,,,,,,,,,,,,,,,,,,,,,,,,,,,,,,,,,,,,,,,,,,,,,,,,,,,,,,,,,,,,,,,,,,,,,,,,,,,,,
html-keyboard-response,159,303677,0.0-3.0-5.0-6.0-1.12,CRGZ4TavntGH5E9LSBCX,223301,3,gY6qXF9uvTh4pZ4W0xiBwAUrnA,Bfv9y7h43Ts4FuNAQ82peNGlrb,,,,,,,,,,,,leapfrog_trial_feedback,,,,,"<p style=""font-size: 3em; color: green;"">You won <b>80</b> points.</p>",,,,,,,,,,,,,,,,,,,,,,,,,,,,,,,,,,,,,,,,,,,,,,,,,,,,,,,,,,,,,,,,,,,,,,,,,,,,,,,,,,,,,,,,,,,,,
html-keyboard-response,160,303953,0.0-3.0-5.0-6.0-0.13,CRGZ4TavntGH5E9LSBCX,223301,3,gY6qXF9uvTh4pZ4W0xiBwAUrnA,Bfv9y7h43Ts4FuNAQ82peNGlrb,,,,,,,,,,,,leapfrog_pt_trial,,276.0,,,"<div style=""font-size:3em;"">CHOOSE</div>
                        <div id=""leapfrog_options_container"">
                            <div id=""option_A"">OPTION A<br><span>(left arrow)</span></div>
                            <div id=""option_B"">OPTION B<br><span>(right arrow)</span></div>
                        </div>",arrowright,True,3.0,73.0,90.0,80.0,80.0,B,,,,,,,,,,,,,,,,,,,,,,,,,,,,,,,,,,,,,,,,,,,,,,,,,,,,,,,,,,,,,,,,,,,,,,,,,,,,,,,,,,,,,
html-keyboard-response,161,304965,0.0-3.0-5.0-6.0-1.13,CRGZ4TavntGH5E9LSBCX,223301,3,gY6qXF9uvTh4pZ4W0xiBwAUrnA,Bfv9y7h43Ts4FuNAQ82peNGlrb,,,,,,,,,,,,leapfrog_trial_feedback,,,,,"<p style=""font-size: 3em; color: green;"">You won <b>80</b> points.</p>",,,,,,,,,,,,,,,,,,,,,,,,,,,,,,,,,,,,,,,,,,,,,,,,,,,,,,,,,,,,,,,,,,,,,,,,,,,,,,,,,,,,,,,,,,,,,
html-keyboard-response,162,305169,0.0-3.0-5.0-6.0-0.14,CRGZ4TavntGH5E9LSBCX,223301,3,gY6qXF9uvTh4pZ4W0xiBwAUrnA,Bfv9y7h43Ts4FuNAQ82peNGlrb,,,,,,,,,,,,leapfrog_pt_trial,,203.0,,,"<div style=""font-size:3em;"">CHOOSE</div>
                        <div id=""leapfrog_options_container"">
                            <div id=""option_A"">OPTION A<br><span>(left arrow)</span></div>
                            <div id=""option_B"">OPTION B<br><span>(right arrow)</span></div>
                        </div>",arrowright,True,3.0,74.0,90.0,80.0,80.0,B,,,,,,,,,,,,,,,,,,,,,,,,,,,,,,,,,,,,,,,,,,,,,,,,,,,,,,,,,,,,,,,,,,,,,,,,,,,,,,,,,,,,,
html-keyboard-response,163,306173,0.0-3.0-5.0-6.0-1.14,CRGZ4TavntGH5E9LSBCX,223301,3,gY6qXF9uvTh4pZ4W0xiBwAUrnA,Bfv9y7h43Ts4FuNAQ82peNGlrb,,,,,,,,,,,,leapfrog_trial_feedback,,,,,"<p style=""font-size: 3em; color: green;"">You won <b>80</b> points.</p>",,,,,,,,,,,,,,,,,,,,,,,,,,,,,,,,,,,,,,,,,,,,,,,,,,,,,,,,,,,,,,,,,,,,,,,,,,,,,,,,,,,,,,,,,,,,,
html-keyboard-response,164,306353,0.0-3.0-5.0-6.0-0.15,CRGZ4TavntGH5E9LSBCX,223301,3,gY6qXF9uvTh4pZ4W0xiBwAUrnA,Bfv9y7h43Ts4FuNAQ82peNGlrb,,,,,,,,,,,,leapfrog_pt_trial,,179.0,,,"<div style=""font-size:3em;"">CHOOSE</div>
                        <div id=""leapfrog_options_container"">
                            <div id=""option_A"">OPTION A<br><span>(left arrow)</span></div>
                            <div id=""option_B"">OPTION B<br><span>(right arrow)</span></div>
                        </div>",arrowright,True,3.0,75.0,90.0,80.0,80.0,B,,,,,,,,,,,,,,,,,,,,,,,,,,,,,,,,,,,,,,,,,,,,,,,,,,,,,,,,,,,,,,,,,,,,,,,,,,,,,,,,,,,,,
html-keyboard-response,165,307365,0.0-3.0-5.0-6.0-1.15,CRGZ4TavntGH5E9LSBCX,223301,3,gY6qXF9uvTh4pZ4W0xiBwAUrnA,Bfv9y7h43Ts4FuNAQ82peNGlrb,,,,,,,,,,,,leapfrog_trial_feedback,,,,,"<p style=""font-size: 3em; color: green;"">You won <b>80</b> points.</p>",,,,,,,,,,,,,,,,,,,,,,,,,,,,,,,,,,,,,,,,,,,,,,,,,,,,,,,,,,,,,,,,,,,,,,,,,,,,,,,,,,,,,,,,,,,,,
html-keyboard-response,166,307378,0.0-3.0-5.0-6.0-0.16,CRGZ4TavntGH5E9LSBCX,223301,3,gY6qXF9uvTh4pZ4W0xiBwAUrnA,Bfv9y7h43Ts4FuNAQ82peNGlrb,,,,,,,,,,,,leapfrog_pt_trial,,12.0,,,"<div style=""font-size:3em;"">CHOOSE</div>
                        <div id=""leapfrog_options_container"">
                            <div id=""option_A"">OPTION A<br><span>(left arrow)</span></div>
                            <div id=""option_B"">OPTION B<br><span>(right arrow)</span></div>
                        </div>",arrowright,True,3.0,76.0,90.0,100.0,100.0,B,,,,,,,,,,,,,,,,,,,,,,,,,,,,,,,,,,,,,,,,,,,,,,,,,,,,,,,,,,,,,,,,,,,,,,,,,,,,,,,,,,,,,
html-keyboard-response,167,308380,0.0-3.0-5.0-6.0-1.16,CRGZ4TavntGH5E9LSBCX,223301,3,gY6qXF9uvTh4pZ4W0xiBwAUrnA,Bfv9y7h43Ts4FuNAQ82peNGlrb,,,,,,,,,,,,leapfrog_trial_feedback,,,,,"<p style=""font-size: 3em; color: green;"">You won <b>100</b> points.</p>",,,,,,,,,,,,,,,,,,,,,,,,,,,,,,,,,,,,,,,,,,,,,,,,,,,,,,,,,,,,,,,,,,,,,,,,,,,,,,,,,,,,,,,,,,,,,
html-keyboard-response,168,309896,0.0-3.0-5.0-6.0-0.17,CRGZ4TavntGH5E9LSBCX,223301,3,gY6qXF9uvTh4pZ4W0xiBwAUrnA,Bfv9y7h43Ts4FuNAQ82peNGlrb,,,,,,,,,,,,leapfrog_pt_trial,,,,,"<div style=""font-size:3em;"">CHOOSE</div>
                        <div id=""leapfrog_options_container"">
                            <div id=""option_A"">OPTION A<br><span>(left arrow)</span></div>
                            <div id=""option_B"">OPTION B<br><span>(right arrow)</span></div>
                        </div>",,True,3.0,77.0,90.0,100.0,,,,,,,,,,,,,,,,,,,,,,,,,,,,,,,,,,,,,,,,,,,,,,,,,,,,,,,,,,,,,,,,,,,,,,,,,,,,,,,,,,,,,,,
html-keyboard-response,169,310909,0.0-3.0-5.0-6.0-1.17,CRGZ4TavntGH5E9LSBCX,223301,3,gY6qXF9uvTh4pZ4W0xiBwAUrnA,Bfv9y7h43Ts4FuNAQ82peNGlrb,,,,,,,,,,,,leapfrog_trial_feedback,,,,,"<p style=""font-size: 3em; color: red;"">X<br><br>TOO SLOW</p>",,,,,,,,,,,,,,,,,,,,,,,,,,,,,,,,,,,,,,,,,,,,,,,,,,,,,,,,,,,,,,,,,,,,,,,,,,,,,,,,,,,,,,,,,,,,,
html-keyboard-response,170,311264,0.0-3.0-5.0-6.0-0.18,CRGZ4TavntGH5E9LSBCX,223301,3,gY6qXF9uvTh4pZ4W0xiBwAUrnA,Bfv9y7h43Ts4FuNAQ82peNGlrb,,,,,,,,,,,,leapfrog_pt_trial,,355.0,,,"<div style=""font-size:3em;"">CHOOSE</div>
                        <div id=""leapfrog_options_container"">
                            <div id=""option_A"">OPTION A<br><span>(left arrow)</span></div>
                            <div id=""option_B"">OPTION B<br><span>(right arrow)</span></div>
                        </div>",arrowright,True,3.0,78.0,90.0,100.0,100.0,B,,,,,,,,,,,,,,,,,,,,,,,,,,,,,,,,,,,,,,,,,,,,,,,,,,,,,,,,,,,,,,,,,,,,,,,,,,,,,,,,,,,,,
html-keyboard-response,171,312278,0.0-3.0-5.0-6.0-1.18,CRGZ4TavntGH5E9LSBCX,223301,3,gY6qXF9uvTh4pZ4W0xiBwAUrnA,Bfv9y7h43Ts4FuNAQ82peNGlrb,,,,,,,,,,,,leapfrog_trial_feedback,,,,,"<p style=""font-size: 3em; color: green;"">You won <b>100</b> points.</p>",,,,,,,,,,,,,,,,,,,,,,,,,,,,,,,,,,,,,,,,,,,,,,,,,,,,,,,,,,,,,,,,,,,,,,,,,,,,,,,,,,,,,,,,,,,,,
html-keyboard-response,172,312357,0.0-3.0-5.0-6.0-0.19,CRGZ4TavntGH5E9LSBCX,223301,3,gY6qXF9uvTh4pZ4W0xiBwAUrnA,Bfv9y7h43Ts4FuNAQ82peNGlrb,,,,,,,,,,,,leapfrog_pt_trial,,79.0,,,"<div style=""font-size:3em;"">CHOOSE</div>
                        <div id=""leapfrog_options_container"">
                            <div id=""option_A"">OPTION A<br><span>(left arrow)</span></div>
                            <div id=""option_B"">OPTION B<br><span>(right arrow)</span></div>
                        </div>",arrowright,True,3.0,79.0,90.0,100.0,100.0,B,,,,,,,,,,,,,,,,,,,,,,,,,,,,,,,,,,,,,,,,,,,,,,,,,,,,,,,,,,,,,,,,,,,,,,,,,,,,,,,,,,,,,
html-keyboard-response,173,313364,0.0-3.0-5.0-6.0-1.19,CRGZ4TavntGH5E9LSBCX,223301,3,gY6qXF9uvTh4pZ4W0xiBwAUrnA,Bfv9y7h43Ts4FuNAQ82peNGlrb,,,,,,,,,,,,leapfrog_trial_feedback,,,,,"<p style=""font-size: 3em; color: green;"">You won <b>100</b> points.</p>",,,,,,,,,,,,,,,,,,,,,,,,,,,,,,,,,,,,,,,,,,,,,,,,,,,,,,,,,,,,,,,,,,,,,,,,,,,,,,,,,,,,,,,,,,,,,
survey-html-form,174,319166,0.0-3.0-6.0-0.0,CRGZ4TavntGH5E9LSBCX,223301,3,gY6qXF9uvTh4pZ4W0xiBwAUrnA,Bfv9y7h43Ts4FuNAQ82peNGlrb,,,,,,,,,,,,leapfrog_pt_trial_interblock_question,,5801.0,False,302.0,,{'prediction': '10'},,,,,,,,99.0,10.0,,,,,,,,,,,,,,,,,,,,,,,,,,,,,,,,,,,,,,,,,,,,,,,,,,,,,,,,,,,,,,,,,,,,,,,,,,,,,,,,,,,
instructions,175,344140,0.0-3.0-7.0,CRGZ4TavntGH5E9LSBCX,223301,3,gY6qXF9uvTh4pZ4W0xiBwAUrnA,Bfv9y7h43Ts4FuNAQ82peNGlrb,,,,,,,,,,,,leapfrog_test_trials_instructions,"[{'page_index': 0, 'viewing_time': 24973}]",24973.0,False,306.0,,,,,,,,,,,,,,,,,,,,,,,,,,,,,,,,,,,,,,,,,,,,,,,,,,,,,,,,,,,,,,,,,,,,,,,,,,,,,,,,,,,,,,,,,,,,,,
html-keyboard-response,176,344724,0.0-3.0-8.0-0.0-0.0,CRGZ4TavntGH5E9LSBCX,223301,3,gY6qXF9uvTh4pZ4W0xiBwAUrnA,Bfv9y7h43Ts4FuNAQ82peNGlrb,,,,,,,,,,,,leapfrog_trial,,582.0,,,"<div style=""font-size:3em; color: choose;"">CHOOSE</div>
                        <div style=""display: flex; justify-content: space-around; font-size: 2em; margin-top: 2em;"">
                            <div>OPTION A<br><span style=""font-size: 0.5em""><i>(left arrow)</i></span></div>
                            <div>OPTION B<br><span style=""font-size: 0.5em""><i>(right arrow)</i></span></div>
                        </div>",arrowleft,False,0.0,0.0,20.0,10.0,20.0,A,,,,,,,,,,,,,,,,,,,,,,,,,,,,,,,,,,,,,,,,,,,,,,,,,,,,,,,,,,,,,,,,,,,,,,,,,,,,,,,,,,,,,
html-keyboard-response,177,345728,0.0-3.0-8.0-0.0-1.0,CRGZ4TavntGH5E9LSBCX,223301,3,gY6qXF9uvTh4pZ4W0xiBwAUrnA,Bfv9y7h43Ts4FuNAQ82peNGlrb,,,,,,,,,,,,leapfrog_trial_feedback,,,,,"<p style=""font-size: 3em; color: green;"">You won <b>20</b> points.</p>",,,,,,,,,,,,,,,,,,,,,,,,,,,,,,,,,,,,,,,,,,,,,,,,,,,,,,,,,,,,,,,,,,,,,,,,,,,,,,,,,,,,,,,,,,,,,
html-keyboard-response,178,346020,0.0-3.0-8.0-0.0-0.1,CRGZ4TavntGH5E9LSBCX,223301,3,gY6qXF9uvTh4pZ4W0xiBwAUrnA,Bfv9y7h43Ts4FuNAQ82peNGlrb,,,,,,,,,,,,leapfrog_trial,,291.0,,,"<div style=""font-size:3em; color: choose;"">CHOOSE</div>
                        <div style=""display: flex; justify-content: space-around; font-size: 2em; margin-top: 2em;"">
                            <div>OPTION A<br><span style=""font-size: 0.5em""><i>(left arrow)</i></span></div>
                            <div>OPTION B<br><span style=""font-size: 0.5em""><i>(right arrow)</i></span></div>
                        </div>",arrowleft,False,0.0,1.0,20.0,10.0,20.0,A,,,,,,,,,,,,,,,,,,,,,,,,,,,,,,,,,,,,,,,,,,,,,,,,,,,,,,,,,,,,,,,,,,,,,,,,,,,,,,,,,,,,,
html-keyboard-response,179,347027,0.0-3.0-8.0-0.0-1.1,CRGZ4TavntGH5E9LSBCX,223301,3,gY6qXF9uvTh4pZ4W0xiBwAUrnA,Bfv9y7h43Ts4FuNAQ82peNGlrb,,,,,,,,,,,,leapfrog_trial_feedback,,,,,"<p style=""font-size: 3em; color: green;"">You won <b>20</b> points.</p>",,,,,,,,,,,,,,,,,,,,,,,,,,,,,,,,,,,,,,,,,,,,,,,,,,,,,,,,,,,,,,,,,,,,,,,,,,,,,,,,,,,,,,,,,,,,,
html-keyboard-response,180,347240,0.0-3.0-8.0-0.0-0.2,CRGZ4TavntGH5E9LSBCX,223301,3,gY6qXF9uvTh4pZ4W0xiBwAUrnA,Bfv9y7h43Ts4FuNAQ82peNGlrb,,,,,,,,,,,,leapfrog_trial,,213.0,,,"<div style=""font-size:3em; color: choose;"">CHOOSE</div>
                        <div style=""display: flex; justify-content: space-around; font-size: 2em; margin-top: 2em;"">
                            <div>OPTION A<br><span style=""font-size: 0.5em""><i>(left arrow)</i></span></div>
                            <div>OPTION B<br><span style=""font-size: 0.5em""><i>(right arrow)</i></span></div>
                        </div>",arrowleft,False,0.0,2.0,20.0,10.0,20.0,A,,,,,,,,,,,,,,,,,,,,,,,,,,,,,,,,,,,,,,,,,,,,,,,,,,,,,,,,,,,,,,,,,,,,,,,,,,,,,,,,,,,,,
html-keyboard-response,181,348255,0.0-3.0-8.0-0.0-1.2,CRGZ4TavntGH5E9LSBCX,223301,3,gY6qXF9uvTh4pZ4W0xiBwAUrnA,Bfv9y7h43Ts4FuNAQ82peNGlrb,,,,,,,,,,,,leapfrog_trial_feedback,,,,,"<p style=""font-size: 3em; color: green;"">You won <b>20</b> points.</p>",,,,,,,,,,,,,,,,,,,,,,,,,,,,,,,,,,,,,,,,,,,,,,,,,,,,,,,,,,,,,,,,,,,,,,,,,,,,,,,,,,,,,,,,,,,,,
html-keyboard-response,182,348501,0.0-3.0-8.0-0.0-0.3,CRGZ4TavntGH5E9LSBCX,223301,3,gY6qXF9uvTh4pZ4W0xiBwAUrnA,Bfv9y7h43Ts4FuNAQ82peNGlrb,,,,,,,,,,,,leapfrog_trial,,245.0,,,"<div style=""font-size:3em; color: choose;"">CHOOSE</div>
                        <div style=""display: flex; justify-content: space-around; font-size: 2em; margin-top: 2em;"">
                            <div>OPTION A<br><span style=""font-size: 0.5em""><i>(left arrow)</i></span></div>
                            <div>OPTION B<br><span style=""font-size: 0.5em""><i>(right arrow)</i></span></div>
                        </div>",arrowleft,False,0.0,3.0,20.0,10.0,20.0,A,,,,,,,,,,,,,,,,,,,,,,,,,,,,,,,,,,,,,,,,,,,,,,,,,,,,,,,,,,,,,,,,,,,,,,,,,,,,,,,,,,,,,
html-keyboard-response,183,349517,0.0-3.0-8.0-0.0-1.3,CRGZ4TavntGH5E9LSBCX,223301,3,gY6qXF9uvTh4pZ4W0xiBwAUrnA,Bfv9y7h43Ts4FuNAQ82peNGlrb,,,,,,,,,,,,leapfrog_trial_feedback,,,,,"<p style=""font-size: 3em; color: green;"">You won <b>20</b> points.</p>",,,,,,,,,,,,,,,,,,,,,,,,,,,,,,,,,,,,,,,,,,,,,,,,,,,,,,,,,,,,,,,,,,,,,,,,,,,,,,,,,,,,,,,,,,,,,
html-keyboard-response,184,349780,0.0-3.0-8.0-0.0-0.4,CRGZ4TavntGH5E9LSBCX,223301,3,gY6qXF9uvTh4pZ4W0xiBwAUrnA,Bfv9y7h43Ts4FuNAQ82peNGlrb,,,,,,,,,,,,leapfrog_trial,,262.0,,,"<div style=""font-size:3em; color: choose;"">CHOOSE</div>
                        <div style=""display: flex; justify-content: space-around; font-size: 2em; margin-top: 2em;"">
                            <div>OPTION A<br><span style=""font-size: 0.5em""><i>(left arrow)</i></span></div>
