view_history,rt,trial_type,trial_index,time_elapsed,internal_node_id,subject_id,form,wave,session_id,session_restart_id,FULLSCREEN_SCREEN_WIDTH,FULLSCREEN_SCREEN_HEIGHT,width,height,webaudio,browser,browser_version,mobile,os,fullscreen,vsync_rate,webcam,microphone,trial_name,success,data_checkpoint,data_checkpoint_ind,response,custom_timer_ended_trial,interval_id,Q1,Q2,Q3,Q4,Q5,Q6,Q7,Q8,Q9,Q10,Q11,Q12,Q13,stimulus,experiment_parameters,task_leapfrog,task_admc_rc1,task_graph_literacy,task_impossible_question,task_time_series,task_bayesian_update_easy,task_bayesian_update_hard,task_shipley_abstraction,task_denominator_neglect_version_A,task_denominator_neglect_version_B,task_admc_rp,task_coherence_forecasting,task_shipley_vocab,task_admc_a2,pt_trial,block,trial,optionA_reward,optionB_reward,points_won,option_selected,curr_block_ind,pt_trial_prediction,slider_start,slider_moved,admc_id,admc_response,response_choice,response_slider,id,question_text,answer_1,answer_2,correct_answer,aig_version,correct,y_axis_values,chart_height,func,direction,noise_condition,datapoints,unique_trial,unique_trial_draw_number,ball_split,left_box_majority_color,right_box_majority_color,selected_box_majority_color,current_draw,past_draws,version,score,shipley_abstraction_score,task_version,choice_type,left_lottery_display_type,right_lottery_display_type,left_lottery_type,right_lottery_type,left_lottery_gold_prop,right_lottery_gold_prop,left_lottery_total_coins,right_lottery_total_coins,left_lottery_gold_coins,right_lottery_gold_coins,left_lottery_silver_coins,right_lottery_silver_coins,selected_lottery,coin_drawn,moved_sliders,cfs_id,cfs_response,question_order,shipley_vocabulary_score
"[{'page_index': 0, 'viewing_time': 1368}]",1369.0,instructions,3,1376,0.0-3.0,VwS8sYZG8uSO6JdgG6Vg,223301,5,hJLvFwjJG2MZgjXVsndV8ZI3pV,zhOhrpU7bGIrYvaV7jgHaZVBgT,1205.0,753.0,,,,,,,,,,,,,,,,,,,,,,,,,,,,,,,,,,,,,,,,,,,,,,,,,,,,,,,,,,,,,,,,,,,,,,,,,,,,,,,,,,,,,,,,,,,,,,,,,,,,,,,,,,,
,,call-function,4,1378,0.0-4.0,VwS8sYZG8uSO6JdgG6Vg,223301,5,hJLvFwjJG2MZgjXVsndV8ZI3pV,zhOhrpU7bGIrYvaV7jgHaZVBgT,1205.0,753.0,,,,,,,,,,,,,,,,,,,,,,,,,,,,,,,,,,,,,,,,,,,,,,,,,,,,,,,,,,,,,,,,,,,,,,,,,,,,,,,,,,,,,,,,,,,,,,,,,,,,,,,,,,,
,,browser-check,5,1879,0.0-5.0,VwS8sYZG8uSO6JdgG6Vg,223301,5,hJLvFwjJG2MZgjXVsndV8ZI3pV,zhOhrpU7bGIrYvaV7jgHaZVBgT,1205.0,753.0,1205.0,633.0,True,samsung,24.0.0,False,Android OS,True,122.5,True,True,browser_check,,,,,,,,,,,,,,,,,,,,,,,,,,,,,,,,,,,,,,,,,,,,,,,,,,,,,,,,,,,,,,,,,,,,,,,,,,,,,,,,,,,,,,,,,,,,,,,
,,fullscreen,6,8245,0.0-6.0,VwS8sYZG8uSO6JdgG6Vg,223301,5,hJLvFwjJG2MZgjXVsndV8ZI3pV,zhOhrpU7bGIrYvaV7jgHaZVBgT,1205.0,753.0,,,,,,,,,,,,fullscreen,True,,,,,,,,,,,,,,,,,,,,,,,,,,,,,,,,,,,,,,,,,,,,,,,,,,,,,,,,,,,,,,,,,,,,,,,,,,,,,,,,,,,,,,,,,,,,,,
,,call-function,7,8252,0.0-7.0,VwS8sYZG8uSO6JdgG6Vg,223301,5,hJLvFwjJG2MZgjXVsndV8ZI3pV,zhOhrpU7bGIrYvaV7jgHaZVBgT,1205.0,753.0,,,,,,,,,,,,,,,,,,,,,,,,,,,,,,,,,,,,,,,,,,,,,,,,,,,,,,,,,,,,,,,,,,,,,,,,,,,,,,,,,,,,,,,,,,,,,,,,,,,,,,,,,,,
,,html-keyboard-response,8,8253,0.0-8.0,VwS8sYZG8uSO6JdgG6Vg,223301,5,hJLvFwjJG2MZgjXVsndV8ZI3pV,zhOhrpU7bGIrYvaV7jgHaZVBgT,1205.0,753.0,,,,,,,,,,,,async_data_save,,experiment__welcome,1.0,,,,,,,,,,,,,,,,,,,,,,,,,,,,,,,,,,,,,,,,,,,,,,,,,,,,,,,,,,,,,,,,,,,,,,,,,,,,,,,,,,,,,,,,,,,,
,,html-keyboard-response,600,512455,0.0-13.0-0.0-0.0,VwS8sYZG8uSO6JdgG6Vg,223301,5,hJLvFwjJG2MZgjXVsndV8ZI3pV,zhOhrpU7bGIrYvaV7jgHaZVBgT,1205.0,753.0,,,,,,,,,,,,,,,,,,,,,,,,,,,,,,,,,,,,,,,,,,,,,,,,,,,,,,,,,,,,,,,,,,,,,,,,,,,,,,,,,,,,,,,,,,,,,,,,,,,,,,,,,,,
,,call-function,601,512608,0.0-13.0-1.0,VwS8sYZG8uSO6JdgG6Vg,223301,5,hJLvFwjJG2MZgjXVsndV8ZI3pV,zhOhrpU7bGIrYvaV7jgHaZVBgT,1205.0,753.0,,,,,,,,,,,,,,,,,,,,,,,,,,,,,,,,,,,,,,,,,,,,,,,,,,,,,,,,,,,,,,,,,,,,,,,,,,,,,,,,,,,,,,,,,,,,,,,,,,,,,,,,,,,
,,call-function,602,512610,0.0-13.0-2.0,VwS8sYZG8uSO6JdgG6Vg,223301,5,hJLvFwjJG2MZgjXVsndV8ZI3pV,zhOhrpU7bGIrYvaV7jgHaZVBgT,1205.0,753.0,,,,,,,,,,,,,,,,,,,,,,,,,,,,,,,,,,,,,,,,,,,,,,,,,,,,,,,,,,,,,,,,,,,,,,,,,,,,,,,,,,,,,,,,,,,,,,,,,,,,,,,,,,,
,211191.0,survey-html-form,603,723813,0.0-13.0-3.0,VwS8sYZG8uSO6JdgG6Vg,223301,5,hJLvFwjJG2MZgjXVsndV8ZI3pV,zhOhrpU7bGIrYvaV7jgHaZVBgT,1205.0,753.0,,,,,,,,,,,,gl_main_trial,,,,"{'Q1': '35', 'Q2': '15', 'Q3': '25', 'Q4': '10', 'Q5': '20', 'Q6': '3', 'Q7': '25', 'Q8': '40', 'Q9': '20', 'Q10': '3', 'Q11': '2', 'Q12': '2', 'Q13': '50'}",False,869.0,35.0,15.0,25.0,10.0,20.0,3.0,25.0,40.0,20.0,3.0,2.0,2.0,50.0,,,,,,,,,,,,,,,,,,,,,,,,,,,,,,,,,,,,,,,,,,,,,,,,,,,,,,,,,,,,,,,,,,,,,,,,,,,,
,,call-function,604,723821,0.0-13.0-4.0,VwS8sYZG8uSO6JdgG6Vg,223301,5,hJLvFwjJG2MZgjXVsndV8ZI3pV,zhOhrpU7bGIrYvaV7jgHaZVBgT,1205.0,753.0,,,,,,,,,,,,,,,,,,,,,,,,,,,,,,,,,,,,,,,,,,,,,,,,,,,,,,,,,,,,,,,,,,,,,,,,,,,,,,,,,,,,,,,,,,,,,,,,,,,,,,,,,,,
,2231.0,html-button-response,605,726055,0.0-13.0-5.0,VwS8sYZG8uSO6JdgG6Vg,223301,5,hJLvFwjJG2MZgjXVsndV8ZI3pV,zhOhrpU7bGIrYvaV7jgHaZVBgT,1205.0,753.0,,,,,,,,,,,,feedback_Graph Literacy,,,,,,,,,,,,,,,,,,,,"
                    <p class=""instructions-title"">Feedback?</p>
                    <p>If something went wrong during the last task or you think we can improve it, please leave any and all comments you have here.</p>
                    <div style=""margin-bottom: 3vh"">
                        <textarea id=""task_feedback"" style=""width: 50vw; height: 15vh;""></textarea>
                    </div>
                ",,,,,,,,,,,,,,,,,,,,,,,,,,,,,,,,,,,,,,,,,,,,,,,,,,,,,,,,,,,,,,,,,,,,,,,,,,,
,,call-function,606,726056,0.0-13.0-6.0,VwS8sYZG8uSO6JdgG6Vg,223301,5,hJLvFwjJG2MZgjXVsndV8ZI3pV,zhOhrpU7bGIrYvaV7jgHaZVBgT,1205.0,753.0,,,,,,,,,,,,,,,,,,,,,,,,,,,,,,,,,,,,,,,,,,,,,,,,,,,,,,,,,,,,,,,,,,,,,,,,,,,,,,,,,,,,,,,,,,,,,,,,,,,,,,,,,,,
,,html-keyboard-response,607,726058,0.0-13.0-8.0,VwS8sYZG8uSO6JdgG6Vg,223301,5,hJLvFwjJG2MZgjXVsndV8ZI3pV,zhOhrpU7bGIrYvaV7jgHaZVBgT,1205.0,753.0,,,,,,,,,,,,async_data_save,,Graph Literacy__completed,4.0,,,,,,,,,,,,,,,,,,,,,,,,,,,,,,,,,,,,,,,,,,,,,,,,,,,,,,,,,,,,,,,,,,,,,,,,,,,,,,,,,,,,,,,,,,,,
,,call-function,0,3,0.0-0.0,VwS8sYZG8uSO6JdgG6Vg,223301,5,hJLvFwjJG2MZgjXVsndV8ZI3pV,20kP2fbRkg5EcmtLrea5CAhG4J,,,,,,,,,,,,,,,,,,,,,,,,,,,,,,,,,,,,,,,,,,,,,,,,,,,,,,,,,,,,,,,,,,,,,,,,,,,,,,,,,,,,,,,,,,,,,,,,,,,,,,,,,,,,,
,,call-function,1,4,0.0-1.0,VwS8sYZG8uSO6JdgG6Vg,223301,5,hJLvFwjJG2MZgjXVsndV8ZI3pV,20kP2fbRkg5EcmtLrea5CAhG4J,,,,,,,,,,,,,,session_parameters,,,,,,,,,,,,,,,,,,,,,"{'INSTRUCTIONS_ONLY': False, 'IGNORE_VALIDATION': False, 'SKIP_INTRO_TRIALS': False, 'TEST_EXCLUSION_CRITERIA': False, 'SIMULATE': False, 'SIMULATE_TRIAL_DURATION': 250}","{'SHOW_TASK': True, 'TASK_ORDER_INDEX': 1, 'SHORT_VERSION': False, 'USE_ANCHOR_VERSION': False, 'VOLATILITY': 0.125, 'TRIAL_TIME_LIMIT': 1500, 'POINTS_COUNTER': 0, 'ANCHOR_FORM_REWARDS': [{'optionA': 10, 'optionB': 20}, {'optionA': 10, 'optionB': 20}, {'optionA': 10, 'optionB': 20}, {'optionA': 10, 'optionB': 20}, {'optionA': 10, 'optionB': 20}, {'optionA': 10, 'optionB': 20}, {'optionA': 10, 'optionB': 20}, {'optionA': 30, 'optionB': 20}, {'optionA': 30, 'optionB': 20}, {'optionA': 30, 'optionB': 20}, {'optionA': 30, 'optionB': 20}, {'optionA': 30, 'optionB': 20}, {'optionA': 30, 'optionB': 40}, {'optionA': 30, 'optionB': 40}, {'optionA': 30, 'optionB': 40}, {'optionA': 30, 'optionB': 40}, {'optionA': 50, 'optionB': 40}, {'optionA': 50, 'optionB': 40}, {'optionA': 50, 'optionB': 40}, {'optionA': 50, 'optionB': 40}, {'optionA': 50, 'optionB': 40}, {'optionA': 50, 'optionB': 40}, {'optionA': 50, 'optionB': 40}, {'optionA': 50, 'optionB': 40}, {'optionA': 50, 'optionB': 40}, {'optionA': 50, 'optionB': 40}, {'optionA': 50, 'optionB': 40}, {'optionA': 50, 'optionB': 60}, {'optionA': 50, 'optionB': 60}, {'optionA': 50, 'optionB': 60}, {'optionA': 50, 'optionB': 60}, {'optionA': 50, 'optionB': 60}, {'optionA': 50, 'optionB': 60}, {'optionA': 50, 'optionB': 60}, {'optionA': 50, 'optionB': 60}, {'optionA': 70, 'optionB': 60}, {'optionA': 70, 'optionB': 60}, {'optionA': 70, 'optionB': 60}, {'optionA': 70, 'optionB': 60}, {'optionA': 70, 'optionB': 60}, {'optionA': 70, 'optionB': 60}, {'optionA': 70, 'optionB': 60}, {'optionA': 70, 'optionB': 60}, {'optionA': 70, 'optionB': 60}, {'optionA': 70, 'optionB': 60}, {'optionA': 70, 'optionB': 60}, {'optionA': 70, 'optionB': 60}, {'optionA': 70, 'optionB': 60}, {'optionA': 70, 'optionB': 60}, {'optionA': 70, 'optionB': 60}, {'optionA': 70, 'optionB': 60}, {'optionA': 70, 'optionB': 60}, {'optionA': 70, 'optionB': 60}, {'optionA': 70, 'optionB': 60}, {'optionA': 70, 'optionB': 80}, {'optionA': 70, 'optionB': 80}, {'optionA': 70, 'optionB': 80}, {'optionA': 90, 'optionB': 80}, {'optionA': 90, 'optionB': 80}, {'optionA': 90, 'optionB': 80}, {'optionA': 90, 'optionB': 80}, {'optionA': 90, 'optionB': 80}, {'optionA': 90, 'optionB': 80}, {'optionA': 90, 'optionB': 80}, {'optionA': 90, 'optionB': 80}, {'optionA': 90, 'optionB': 100}, {'optionA': 90, 'optionB': 100}, {'optionA': 90, 'optionB': 100}, {'optionA': 90, 'optionB': 100}, {'optionA': 90, 'optionB': 100}, {'optionA': 90, 'optionB': 100}, {'optionA': 90, 'optionB': 100}, {'optionA': 90, 'optionB': 100}, {'optionA': 110, 'optionB': 100}, {'optionA': 110, 'optionB': 120}, {'optionA': 130, 'optionB': 120}, {'optionA': 130, 'optionB': 120}, {'optionA': 130, 'optionB': 120}, {'optionA': 130, 'optionB': 120}, {'optionA': 130, 'optionB': 120}, {'optionA': 130, 'optionB': 120}, {'optionA': 130, 'optionB': 120}, {'optionA': 130, 'optionB': 140}, {'optionA': 130, 'optionB': 140}, {'optionA': 150, 'optionB': 140}, {'optionA': 150, 'optionB': 140}, {'optionA': 150, 'optionB': 140}, {'optionA': 150, 'optionB': 140}, {'optionA': 150, 'optionB': 140}, {'optionA': 150, 'optionB': 140}, {'optionA': 150, 'optionB': 140}, {'optionA': 150, 'optionB': 140}, {'optionA': 150, 'optionB': 140}, {'optionA': 150, 'optionB': 140}, {'optionA': 150, 'optionB': 140}, {'optionA': 150, 'optionB': 160}, {'optionA': 150, 'optionB': 160}, {'optionA': 150, 'optionB': 160}, {'optionA': 150, 'optionB': 160}, {'optionA': 150, 'optionB': 160}, {'optionA': 150, 'optionB': 160}, {'optionA': 170, 'optionB': 160}, {'optionA': 170, 'optionB': 160}, {'optionA': 170, 'optionB': 160}, {'optionA': 170, 'optionB': 160}, {'optionA': 170, 'optionB': 160}, {'optionA': 170, 'optionB': 180}, {'optionA': 170, 'optionB': 180}, {'optionA': 170, 'optionB': 180}, {'optionA': 190, 'optionB': 180}, {'optionA': 190, 'optionB': 200}, {'optionA': 190, 'optionB': 200}, {'optionA': 190, 'optionB': 200}, {'optionA': 190, 'optionB': 200}, {'optionA': 210, 'optionB': 200}, {'optionA': 210, 'optionB': 200}, {'optionA': 210, 'optionB': 200}, {'optionA': 210, 'optionB': 200}, {'optionA': 210, 'optionB': 200}, {'optionA': 210, 'optionB': 200}, {'optionA': 210, 'optionB': 220}, {'optionA': 210, 'optionB': 220}, {'optionA': 210, 'optionB': 220}, {'optionA': 210, 'optionB': 220}, {'optionA': 210, 'optionB': 220}, {'optionA': 210, 'optionB': 220}, {'optionA': 210, 'optionB': 220}, {'optionA': 210, 'optionB': 220}, {'optionA': 210, 'optionB': 220}, {'optionA': 210, 'optionB': 220}, {'optionA': 210, 'optionB': 220}, {'optionA': 210, 'optionB': 220}, {'optionA': 210, 'optionB': 220}, {'optionA': 210, 'optionB': 220}, {'optionA': 210, 'optionB': 220}, {'optionA': 210, 'optionB': 220}, {'optionA': 210, 'optionB': 220}, {'optionA': 210, 'optionB': 220}, {'optionA': 210, 'optionB': 220}, {'optionA': 210, 'optionB': 220}, {'optionA': 210, 'optionB': 220}, {'optionA': 230, 'optionB': 220}, {'optionA': 230, 'optionB': 240}, {'optionA': 230, 'optionB': 240}, {'optionA': 230, 'optionB': 240}, {'optionA': 230, 'optionB': 240}, {'optionA': 230, 'optionB': 240}, {'optionA': 230, 'optionB': 240}, {'optionA': 230, 'optionB': 240}, {'optionA': 230, 'optionB': 240}, {'optionA': 250, 'optionB': 240}, {'optionA': 250, 'optionB': 240}, {'optionA': 250, 'optionB': 240}, {'optionA': 250, 'optionB': 240}, {'optionA': 250, 'optionB': 240}, {'optionA': 250, 'optionB': 240}, {'optionA': 250, 'optionB': 240}, {'optionA': 250, 'optionB': 240}, {'optionA': 250, 'optionB': 240}, {'optionA': 250, 'optionB': 240}, {'optionA': 250, 'optionB': 240}, {'optionA': 250, 'optionB': 240}, {'optionA': 250, 'optionB': 240}, {'optionA': 250, 'optionB': 240}, {'optionA': 250, 'optionB': 240}, {'optionA': 250, 'optionB': 240}, {'optionA': 250, 'optionB': 240}, {'optionA': 250, 'optionB': 240}, {'optionA': 250, 'optionB': 240}, {'optionA': 250, 'optionB': 260}, {'optionA': 250, 'optionB': 260}, {'optionA': 250, 'optionB': 260}, {'optionA': 270, 'optionB': 260}, {'optionA': 270, 'optionB': 260}, {'optionA': 270, 'optionB': 260}, {'optionA': 270, 'optionB': 260}, {'optionA': 270, 'optionB': 260}, {'optionA': 270, 'optionB': 260}, {'optionA': 270, 'optionB': 260}, {'optionA': 270, 'optionB': 260}, {'optionA': 270, 'optionB': 280}, {'optionA': 270, 'optionB': 280}, {'optionA': 270, 'optionB': 280}, {'optionA': 270, 'optionB': 280}, {'optionA': 270, 'optionB': 280}, {'optionA': 270, 'optionB': 280}, {'optionA': 270, 'optionB': 280}, {'optionA': 290, 'optionB': 280}, {'optionA': 290, 'optionB': 280}, {'optionA': 290, 'optionB': 280}, {'optionA': 290, 'optionB': 300}, {'optionA': 290, 'optionB': 300}, {'optionA': 310, 'optionB': 300}, {'optionA': 310, 'optionB': 300}, {'optionA': 310, 'optionB': 300}, {'optionA': 310, 'optionB': 300}, {'optionA': 310, 'optionB': 300}, {'optionA': 310, 'optionB': 300}, {'optionA': 310, 'optionB': 320}, {'optionA': 310, 'optionB': 320}], 'PT_TRIALS_N': 80, 'PT_TRIALS_PER_BLOCK': 20, 'PT_BLOCKS': 4, 'TEST_TRIALS_N': 200, 'TEST_TRIALS_PER_BLOCK': 40, 'TEST_BLOCKS': 5}","{'SHOW_TASK': True, 'TASK_ORDER_INDEX': 2, 'RESISTANCE_TO_FRAMING_ITEMS': [{'stimulus_html': '<p><b>Problem</b></p>\n                                <p>Imagine that recent evidence has shown that a pesticide is threatening the lives of 1,200 endangered animals. Two response options have been suggested:</p>\n                                <p style=""margin-left: 30px"">If Option A is used, 600 animals will be saved for sure.</p>\n                                <p style=""margin-left: 30px"">If Option B is used, there is a 75% chance that 800 animals will be saved, and a 25% chance that no animals will be saved.</p>\n                                <p>Which option do you recommend to use?</p>', 'label_min': 'Definitely would choose A', 'label_max': 'Definitely would choose B', 'id': 'rc1_1'}, {'stimulus_html': '<p><b>Problem</b></p>\n                                <p>Because of changes in tax laws, you may get back as much as $1200 in income tax. Your accountant has been exploring alternative ways to take advantage of this situation. He has developed two plans:</p>\n                                <p style=""margin-left: 30px"">If Plan A is adopted, you will get back $400 of the possible $1200.</p>\n                                <p style=""margin-left: 30px"">If Plan B is adopted, you have a 33% chance of getting back all $1200, and a 67% chance of getting back no money.</p>\n                                <p>Which plan would you use?</p>', 'label_min': 'Definitely would choose A', 'label_max': 'Definitely would choose B', 'id': 'rc1_2'}, {'stimulus_html': '<p><b>Problem</b></p>\n                                <p>Imagine that in one particular state it is projected that 1000 students will drop out of school during the next year. Two programs have been proposed to address this problem, but only one can be implemented. Based on other states\' experiences with the programs, estimates of the outcomes that can be expected from each program can be made. Assume for purposes of this decision that these estimates of the outcomes are accurate and are as follows:</p>\n                                <p style=""margin-left: 30px"">If Program A is adopted, 400 of the 1000 students will stay in school.</p>\n                                <p style=""margin-left: 30px"">If Program B is adopted, there is a 40% chance that all 1000 students will stay in school and 60% chance that none of the 1000 students will stay in school.</p>\n                                <p>Which program would you favor for implementation?</p>', 'label_min': 'Definitely would choose A', 'label_max': 'Definitely would choose B', 'id': 'rc1_3'}, {'stimulus_html': '<p><b>Problem</b></p>\n                                <p>Imagine that the U.S. is preparing for the outbreak of an unusual disease, which is expected to kill 600 people. Two alternative programs to combat the disease have been proposed. Assume that the exact scientific estimates of the consequences of the programs are as follows:</p>\n                                <p style=""margin-left: 30px"">If Program A is adopted, 200 people will be saved.</p>\n                                <p style=""margin-left: 30px"">If Program B is adopted, there is a 33% chance that 600 people will be saved, and a 67% chance that no people will be saved.</p>\n                                <p>Which program do you recommend to use?</p>', 'label_min': 'Definitely would choose A', 'label_max': 'Definitely would choose B', 'id': 'rc1_4'}, {'stimulus_html': '<p><b>Problem</b></p>\n                                <p>Imagine that your doctor tells you that you have a cancer that must be treated. Your choices are as follows:</p>\n                                <p style=""margin-left: 30px"">Surgery: Of 100 people having surgery, 90 live through the operation, and 34 are alive at the end of five years.</p>\n                                <p style=""margin-left: 30px"">Radiation therapy: Of 100 people having radiation therapy, all live through the treatment, and 22 are alive at the end of five years.</p>\n                                <p>Which treatment would you choose?</p>', 'label_min': 'Definitely would choose surgery', 'label_max': 'Definitely would choose radiation', 'id': 'rc1_5'}, {'stimulus_html': '<p><b>Problem</b></p>\n                                <p>Imagine that your client has $6,000 invested in the stock market. A downturn in the economy is occurring. You have two investment strategies that you can recommend under the existing circumstances to preserve your client\'s capital.</p>\n                                <p style=""margin-left: 30px"">If strategy A is followed, $2,000 of your client\'s investment will be saved.</p>\n                                <p style=""margin-left: 30px"">If strategy B is followed, there is a 33% chance that the entire $6,000 will be saved, and a 67% chance that none of the principal will be saved.</p>\n                                <p>Which of these two strategies would you favor?</p>', 'label_min': 'Definitely would choose A', 'label_max': 'Definitely would choose B', 'id': 'rc1_6'}, {'stimulus_html': '<p><b>Problem</b></p>\n                                <p>Imagine a hospital is treating 32 injured soldiers, who are all expected to lose one leg. There are two doctors that can help the soldiers, but only one can be hired:</p>\n                                <p style=""margin-left: 30px"">If Doctor A is hired, 20 soldiers will keep both legs.</p>\n                                <p style=""margin-left: 30px"">If Doctor B is hired, there is a 63% chance that all soldiers keep both legs and a 37% chance that nobody will save both legs.</p>\n                                <p>Which doctor do you recommend?</p>', 'label_min': 'Definitely would choose A', 'label_max': 'Definitely would choose B', 'id': 'rc1_7'}, {'stimulus_html': '<p><b>Problem</b></p>\n                                <p>Imagine that a type of condom has a 95% success rate. That is, if you have sex with someone who has the AIDS virus, there is a 95% chance that this type of condom will prevent you from being exposed to the AIDS virus.</p>\n                                <p>Should the government allow this type of condom to be advertised as ""an effective method for lowering the risk of AIDS""?</p>', 'label_min': 'Definitely no', 'label_max': 'Definitely yes', 'id': 'a1_1'}, {'stimulus_html': ""<p><b>Problem</b></p>\n                                <p>Imagine the following situation. You are entertaining a special friend by inviting them for dinner. You are making your favorite lasagna dish with ground beef. Your roommate goes to the grocery store and purchases a package of ground beef for you. The label says 80% lean ground beef.</p>\n                                <p>What's your evaluation of the quality of this ground beef?</p>"", 'label_min': 'Very low', 'label_max': 'Very high', 'id': 'a1_2'}, {'stimulus_html': '<p><b>Problem</b></p>\n                                <p>In a recent confidential survey completed by graduating seniors, 35% of those completing the survey stated that they had never cheated during their college career.</p>\n                                <p>Considering the results of the survey, how would you rate the incidence of cheating at your university?</p>', 'label_min': 'Very low', 'label_max': 'Very high', 'id': 'a1_3'}, {'stimulus_html': '<p><b>Problem</b></p>\n                                <p>As R&D manager, one of your project teams has come to you requesting an additional $100,000 in funds for a project you instituted several months ago. The project is already behind schedule and over budget, but the team still believes it can be successfully completed. You currently have $500,000 remaining in your budget unallocated, but which must carry you for the rest of the fiscal year. Lowering the balance by an additional $100,000 might jeopardize flexibility to respond to other opportunities.</p>\n                                <p>Evaluating the situation, you believe there is a fair chance the project will not succeed, in which case the additional funding would be lost; if successful, however, the money would be well spent. You also noticed that of the projects undertaken by this team, 30 of the last 50 have been successful.</p>\n                                <p>What is the likelihood you would fund the request?</p>', 'label_min': 'Very unlikely', 'label_max': 'Very likely', 'id': 'a1_4'}, {'stimulus_html': ""<p><b>Problem</b></p>\n                                <p>Suppose a student got 90% correct in the mid-term exam and 70% correct in the final-term exam, what would be your evaluations of this student's performance?</p>"", 'label_min': 'Very poor', 'label_max': 'Very good', 'id': 'a1_5'}, {'stimulus_html': '<p><b>Problem</b></p>\n                                <p>Imagine that a woman parked illegally. After talking to her, you believe that there is a 20% chance that she did not know she parked illegally.</p>\n                                <p>With this in mind, how much of a fine do you believe this woman deserves?</p>', 'label_min': 'Minimum fine', 'label_max': 'Maximum fine', 'id': 'a1_6'}, {'stimulus_html': '<p><b>Problem</b></p>\n                                <p>Imagine that a new technique has been developed to treat a particular kind of cancer. This technique has a 50% chance of success, and is available at the local hospital.</p>\n                                <p>A member of your immediate family is a patient at the local hospital with this kind of cancer. Would you encourage him or her to undergo treatment using this technique?</p>', 'label_min': 'Definitely no', 'label_max': 'Definitely yes', 'id': 'a1_7'}, {'stimulus_html': '<p><b>Problem</b></p>\n                                <p>Imagine a hospital is treating 32 injured soldiers, who are all expected to lose one leg. There are two doctors that can help the soldiers, but only one can be hired:</p>\n                                <p style=""margin-left: 30px"">If Doctor A is hired, 12 soldiers will lose one leg.</p>\n                                <p style=""margin-left: 30px"">If Doctor B is hired, there is a 63% chance that nobody loses a leg and a 37% chance that all lose a leg.</p>\n                                <p>Which doctor do you recommend?</p>', 'label_min': 'Definitely would choose A', 'label_max': 'Definitely would choose B', 'id': 'rc2_1'}, {'stimulus_html': '<p><b>Problem</b></p>\n                                <p>Imagine that the U.S. is preparing for the outbreak of an unusual disease, which is expected to kill 600 people. Two alternative programs to combat the disease have been proposed. Assume that the exact scientific estimates of the consequences of the programs are as follows:</p>\n                                <p style=""margin-left: 30px"">If Program A is adopted, 400 people will die.</p>\n                                <p style=""margin-left: 30px"">If Program B is adopted, there is a 33% chance that nobody will die, and a 67% chance that 600 people will die.</p>\n                                <p>Which program do you recommend to use?</p>', 'label_min': 'Definitely would choose A', 'label_max': 'Definitely would choose B', 'id': 'rc2_2'}, {'stimulus_html': '<p><b>Problem</b></p>\n                                <p>Imagine that your client has $6,000 invested in the stock market. A downturn in the economy is occurring. You have two investment strategies that you can recommend under the existing circumstances to preserve your client\'s capital.</p>\n                                <p style=""margin-left: 30px"">If strategy A is followed, $4,000 of your client\'s investment will be lost.</p>\n                                <p style=""margin-left: 30px"">If strategy B is followed, there is a 33% chance that the nothing will be lost, and a 67% chance that $6,000 will be lost.</p>\n                                <p>Which of these two strategies would you favor?</p>', 'label_min': 'Definitely would choose A', 'label_max': 'Definitely would choose B', 'id': 'rc2_3'}, {'stimulus_html': '<p><b>Problem</b></p>\n                                <p>Because of changes in tax laws, you may get back as much as $1200 in income tax. Your accountant has been exploring alternative ways to take advantage of this situation. He has developed two plans:</p>\n                                <p style=""margin-left: 30px"">If Plan A is adopted, you will lose $800 of the possible $1200.</p>\n                                <p style=""margin-left: 30px"">If Plan B is adopted, you have a 33% chance of losing none of the money, and a 67% chance of losing all $1200.</p>\n                                <p>Which plan would you use?</p>', 'label_min': 'Definitely would choose A', 'label_max': 'Definitely would choose B', 'id': 'rc2_4'}, {'stimulus_html': '<p><b>Problem</b></p>\n                                <p>Imagine that recent evidence has shown that a pesticide is threatening the lives of 1,200 endangered animals. Two response options have been suggested:</p>\n                                <p style=""margin-left: 30px"">If Option A is used, 600 animals will be lost for sure.</p>\n                                <p style=""margin-left: 30px"">If Option B is used, there is a 75% chance that 400 animals will be lost, and a 25% chance that 1,200 animals will be lost.</p>\n                                <p>Which option do you recommend to use?</p>', 'label_min': 'Definitely would choose A', 'label_max': 'Definitely would choose B', 'id': 'rc2_5'}, {'stimulus_html': '<p><b>Problem</b></p>\n                                <p>Imagine that your doctor tells you that you have a cancer that must be treated. Your choices are as follows:</p>\n                                <p style=""margin-left: 30px"">Surgery: Of 100 people having surgery, 10 die because of the operation, and 66 die by the end of five years.</p>\n                                <p style=""margin-left: 30px"">Radiation therapy: Of 100 people having radiation therapy, none die during the treatment, and 78 die by the end of five years.</p>\n                                <p>Which treatment would you choose?</p>', 'label_min': 'Definitely would choose surgery', 'label_max': 'Definitely would choose radiation', 'id': 'rc2_6'}, {'stimulus_html': '<p><b>Problem</b></p>\n                                <p>Imagine that in one particular state it is projected that 1000 students will drop out of school during the next year. Two programs have been proposed to address this problem, but only one can be implemented. Based on other states\' experiences with the programs, estimates of the outcomes that can be expected from each program can be made. Assume for purposes of this decision that these estimates of the outcomes are accurate and are as follows:</p>\n                                <p style=""margin-left: 30px"">If Program A is adopted, 600 of the 1000 students will drop out of school.</p>\n                                <p style=""margin-left: 30px"">If Program B is adopted, there is a 40% chance that none of the 1000 students will drop out of school and 60% chance that all 1000 students will drop out of school.</p>\n                                <p>Which program would you favor for implementation?</p>', 'label_min': 'Definitely would choose A', 'label_max': 'Definitely would choose B', 'id': 'rc2_7'}, {'stimulus_html': '<p><b>Problem</b></p>\n                                <p>As R&D manager, one of your project teams has come to you requesting an additional $100,000 in funds for a project you instituted several months ago. The project is already behind schedule and over budget, but the team still believes it can be successfully completed. You currently have $500,000 remaining in your budget unallocated, but which must carry you for the rest of the fiscal year. Lowering the balance by an additional $100,000 might jeopardize flexibility to respond to other opportunities.</p>\n                                <p>Evaluating the situation, you believe there is a fair chance the project will not succeed, in which case the additional funding would be lost; if successful, however, the money would be well spent. You also noticed that of the projects undertaken by this team, 20 of the last 50 have been unsuccessful.</p>\n                                <p>What is the likelihood you would fund the request?</p>', 'label_min': 'Very unlikely', 'label_max': 'Very likely', 'id': 'a2_1'}, {'stimulus_html': '<p><b>Problem</b></p>\n                                <p>Imagine that a woman parked illegally. After talking to her, you believe that there is an 80% chance that she knew she parked illegally</p>\n                                <p>With this in mind, how much of a fine do you believe this woman deserves?</p>', 'label_min': 'Minimum fine', 'label_max': 'Maximum fine', 'id': 'a2_2'}, {'stimulus_html': '<p><b>Problem</b></p>\n                                <p>In a recent confidential survey completed by graduating seniors, 65% of those completing the survey stated that they had cheated during their college career.</p>\n                                <p>Considering the results of the survey, how would you rate the incidence of cheating at your university?</p>', 'label_min': 'Very low', 'label_max': 'Very high', 'id': 'a2_3'}, {'stimulus_html': '<p><b>Problem</b></p>\n                                <p>Imagine that a new technique has been developed to treat a particular kind of cancer. This technique has a 50% chance of failure, and is available at the local hospital.</p>\n                                <p>A member of your immediate family is a patient at the local hospital with this kind of cancer. How likely are you to encourage him or her to undergo treatment using this technique?</p>', 'label_min': 'Definitely no', 'label_max': 'Definitely yes', 'id': 'a2_4'}, {'stimulus_html': ""<p><b>Problem</b></p>\n                                <p>Imagine the following situation. You are entertaining a special friend by inviting them for dinner. You are making your favorite lasagna dish with ground beef. Your roommate goes to the grocery store and purchases a package of ground beef for you. The label says 20% fat ground beef.</p>\n                                <p>What's your evaluation of the quality of this ground beef?</p>"", 'label_min': 'Very low', 'label_max': 'Very high', 'id': 'a2_5'}, {'stimulus_html': '<p><b>Problem</b></p>\n                                <p>Imagine that a type of condom has a 5% failure rate. That is, if you have sex with someone who has the AIDS virus, there is a 5% chance that this type of condom will fail to prevent you from being exposed to the AIDS virus.</p>\n                                <p>Should the government allow this type of condom to be advertised as ""an effective method for lowering the risk of AIDS""?</p>', 'label_min': 'Definitely no', 'label_max': 'Definitely yes', 'id': 'a2_6'}, {'stimulus_html': ""<p><b>Problem</b></p>\n                                <p>Suppose a student got 10% incorrect in the mid-term exam and 30% incorrect in the final-term exam, what would be your evaluations of this student's performance?</p>"", 'label_min': 'Very poor', 'label_max': 'Very good', 'id': 'a2_7'}]}","{'SHOW_TASK': True, 'TASK_ORDER_INDEX': 3, 'GL_CONTENT': [{'content': 'info', 'html': ""Here's some information about cancer therapies.<br><br><img src='img/stimuli/gl_img_1.png'>""}, {'content': 'question', 'question_index': 'Q1', 'question_text': 'What percentage of patients recovered after chemotherapy?', 'response_type': 'text', 'response_placeholder': '0-100', 'response_scale': '%'}, {'content': 'question', 'question_index': 'Q2', 'question_text': 'What is the difference between the percentage of patients who recovered after a surgery and the percentage of patients who recovered after radiation therapy?', 'response_type': 'text', 'response_placeholder': '0-100', 'response_scale': '%'}, {'content': 'info', 'html': ""Here's some information about different forms of cancer.<br><br><img src='img/stimuli/gl_img_2.png'>""}, {'content': 'question', 'question_index': 'Q3', 'question_text': 'Of all the people who die from cancer, approximately what percentage dies from lung cancer?', 'response_type': 'text', 'response_placeholder': '0-100', 'response_scale': '%'}, {'content': 'question', 'question_index': 'Q4', 'question_text': 'Approximately what percentage of people who die from cancer die from colon cancer, breast cancer, and prostate cancer taken together?', 'response_type': 'text', 'response_placeholder': '0-100', 'response_scale': '%'}, {'content': 'info', 'html': ""Here's some information about an imaginary disease called Adeolitis.<br><br><img src='img/stimuli/gl_img_3.png'>""}, {'content': 'question', 'question_index': 'Q5', 'question_text': 'Approximately what percentage of people had Adeolitis in the year 2000?', 'response_type': 'text', 'response_placeholder': '0-100', 'response_scale': '%'}, {'content': 'question', 'question_index': 'Q6', 'question_text': 'When was the increase in the percentage of people with Adeolitis higher?', 'response_type': 'radio', 'response_opts': [{'name': 'Q6', 'value': '1', 'id': 'Q6_1', 'label': 'From 1975 to 1980'}, {'name': 'Q6', 'value': '2', 'id': 'Q6_2', 'label': 'From 2000 to 2005'}, {'name': 'Q6', 'value': '3', 'id': 'Q6_3', 'label': 'Increase was the same in both intervals'}, {'name': 'Q6', 'value': '4', 'id': 'Q6_4', 'label': ""Don't know""}]}, {'content': 'question', 'question_index': 'Q7', 'question_text': 'According to your best guess, what will the percentage of people with Adeolitis be in the year 2010?', 'response_type': 'text', 'response_placeholder': '0-100', 'response_scale': '%'}, {'content': 'info', 'html': ""The following figure shows the number of men and women among patients with disease X. The total number of circles is 100.<br><br><img src='img/stimuli/gl_img_4.png'>""}, {'content': 'question', 'question_index': 'Q8', 'question_text': 'Of 100 patients with disease X, how many are women?', 'response_type': 'text', 'response_placeholder': '0-100', 'response_scale': 'women'}, {'content': 'question', 'question_index': 'Q9', 'question_text': 'How many more men than women are there among 100 patients with disease X?', 'response_type': 'text', 'response_placeholder': '0-100', 'response_scale': 'men'}, {'content': 'info', 'html': ""In a magazine you see two advertisements, one on page 5 and another on page 12. Each is for a different drug for treating heart disease, and each includes a graph showing the effectiveness of the drug compared to a placebo (sugar pill).<br><br><img src='img/stimuli/gl_img_5.png'>""}, {'content': 'question', 'question_index': 'Q10', 'question_text': 'Compared to the placebo, which treatment leads to a larger decrease in the percentage of patients who die?', 'response_type': 'radio', 'response_opts': [{'name': 'Q10', 'value': '1', 'id': 'Q10_1', 'label': 'Crosicol'}, {'name': 'Q10', 'value': '2', 'id': 'Q10_2', 'label': 'Hertinol'}, {'name': 'Q10', 'value': '3', 'id': 'Q10_3', 'label': 'They are equal'}, {'name': 'Q10', 'value': '4', 'id': 'Q10_4', 'label': ""Can't say""}]}, {'content': 'info', 'html': ""In the newspaper you see two advertisements, one on page 15 and another on page 17. Each is for a different treatment of psoriasis, and each includes a graph showing the effectiveness of the treatment over time.<br><br><img src='img/stimuli/gl_img_6.png'>""}, {'content': 'question', 'question_index': 'Q11', 'question_text': 'Which of the treatments contributes to a larger decrease in the percentage of sick patients?', 'response_type': 'radio', 'response_opts': [{'name': 'Q11', 'value': '1', 'id': 'Q11_1', 'label': 'Apsoriatin'}, {'name': 'Q11', 'value': '2', 'id': 'Q11_2', 'label': 'Nopsorian'}, {'name': 'Q11', 'value': '3', 'id': 'Q11_3', 'label': 'They are equal'}, {'name': 'Q11', 'value': '4', 'id': 'Q11_4', 'label': ""Can't say""}]}, {'content': 'info', 'html': ""Here is some information about the imaginary diseases Coliosis and Tiosis.<br><br><img src='img/stimuli/gl_img_7.png'>""}, {'content': 'question', 'question_index': 'Q12', 'question_text': 'Between 1980 and 1990, which disease had a higher increase in the percentage of people affected?', 'response_type': 'radio', 'response_opts': [{'name': 'Q12', 'value': '1', 'id': 'Q12_1', 'label': 'Coliosis'}, {'name': 'Q12', 'value': '2', 'id': 'Q12_2', 'label': 'Tiosis'}, {'name': 'Q12', 'value': '3', 'id': 'Q12_3', 'label': 'The increase was equal'}, {'name': 'Q12', 'value': '4', 'id': 'Q12_4', 'label': ""Can't say""}]}, {'content': 'info', 'html': ""Here's some information about cancer therapies.<br><br><img src='img/stimuli/gl_img_8.png'>""}, {'content': 'question', 'question_index': 'Q13', 'question_text': 'What is the percentage of cancer patients who die after chemotherapy?', 'response_type': 'text', 'response_placeholder': '0-100', 'response_scale': '%'}]}","{'SHOW_TASK': True, 'TASK_ORDER_INDEX': 4, 'SHORT_VERSION': False, 'USE_ANCHOR_VERSION': True, 'TEST_TRIALS_N': 30, 'TEST_TRIALS_PER_BLOCK': 30, 'TEST_BLOCKS': 1, 'GK_FORMS': {'anchor': ['GK_86', 'GK_75', 'GK_90', 'GK_80', 'GK_70', 'GK_79', 'GK_64', 'GK_72', 'GK_63', 'GK_42', 'GK_61', 'GK_69', 'GK_36', 'GK_53', 'GK_14', 'GK_55', 'GK_6', 'GK_84', 'GK_23', 'GK_22', 'GK_2', 'GK_3', 'GK_21', 'GK_4'], 'aig_A': ['GK_89', 'GK_91', 'GK_94', 'GK_85', 'GK_49', 'GK_20', 'GK_74', 'GK_38', 'GK_25', 'GK_54', 'GK_43', 'GK_76', 'GK_39', 'GK_32', 'GK_71', 'GK_35', 'GK_28', 'GK_77', 'GK_48', 'GK_31', 'GK_27', 'GK_7', 'GK_17', 'GK_11'], 'aig_B': ['GK_87', 'GK_82', 'GK_93', 'GK_83', 'GK_26', 'GK_62', 'GK_88', 'GK_66', 'GK_44', 'GK_29', 'GK_81', 'GK_57', 'GK_58', 'GK_41', 'GK_47', 'GK_37', 'GK_13', 'GK_60', 'GK_24', 'GK_12', 'GK_9', 'GK_16', 'GK_15', 'GK_33']}, 'IQ_FORMS': {'anchor': ['IQ_1', 'IQ_2', 'IQ_3', 'IQ_4', 'IQ_5', 'IQ_6'], 'aig_A': ['IQ_7', 'IQ_8', 'IQ_9', 'IQ_10', 'IQ_11', 'IQ_12'], 'aig_B': ['IQ_13', 'IQ_14', 'IQ_15', 'IQ_16', 'IQ_17', 'IQ_18']}, 'GENERAL_KNOWLEDGE_QUESTIONS': [{'id': 'GK_1', 'question_text': 'Carbon dioxide produced by burning fossil fuels contributes to global warming.', 'answer_1': 'True', 'answer_2': 'False', 'correct_answer': '1'}, {'id': 'GK_2', 'question_text': 'The radius of the Earth is approximately...', 'answer_1': '4000 miles', 'answer_2': '200 miles', 'correct_answer': '1'}, {'id': 'GK_3', 'question_text': 'Apples are classified as:', 'answer_1': 'Fruits', 'answer_2': 'Vegetables', 'correct_answer': '1'}, {'id': 'GK_4', 'question_text': 'Which comes closest in meaning to the following word? Easy', 'answer_1': 'Complex', 'answer_2': 'Simple', 'correct_answer': '2'}, {'id': 'GK_5', 'question_text': '5 + 5 + 5 = ', 'answer_1': '15', 'answer_2': '50', 'correct_answer': '1'}, {'id': 'GK_6', 'question_text': 'Which of the following is found in plant cells but not animal cells?', 'answer_1': 'Chloroplasts', 'answer_2': 'Ribosome', 'correct_answer': '1'}, {'id': 'GK_7', 'question_text': 'How many points is a touchdown in American Football?', 'answer_1': '6', 'answer_2': '8', 'correct_answer': '1'}, {'id': 'GK_8', 'question_text': 'A bat-and-ball game played between two teams of nine players each who take turns batting and fielding is', 'answer_1': 'Tennis', 'answer_2': 'Baseball', 'correct_answer': '2'}, {'id': 'GK_9', 'question_text': 'In which continent does Germany lie?', 'answer_1': 'Asia', 'answer_2': 'Europe', 'correct_answer': '2'}, {'id': 'GK_10', 'question_text': 'A conical mountain having a crater or vent through which lava and gases erupt is called:', 'answer_1': 'Volcano', 'answer_2': 'Electric storm', 'correct_answer': '1'}, {'id': 'GK_11', 'question_text': 'The world population is approximately:', 'answer_1': '7 million', 'answer_2': '7 billion', 'correct_answer': '2'}, {'id': 'GK_12', 'question_text': 'Psychology is used to study the life cycle of animals and plants', 'answer_1': 'True', 'answer_2': 'False', 'correct_answer': '2'}, {'id': 'GK_13', 'question_text': 'Melting point is the temperature at which solids:', 'answer_1': 'Melt in liquids', 'answer_2': 'Evaporate into gases', 'correct_answer': '1'}, {'id': 'GK_14', 'question_text': ""Methane, Carbon Dioxide and Water vapor in the atmosphere are all good at trapping heat from the Earth's surface"", 'answer_1': 'True', 'answer_2': 'False', 'correct_answer': '1'}, {'id': 'GK_15', 'question_text': 'Which comes closest in meaning to the following word: Quick', 'answer_1': 'Fast', 'answer_2': 'Slow', 'correct_answer': '1'}, {'id': 'GK_16', 'question_text': 'Which happened earlier in history?', 'answer_1': 'World War 1', 'answer_2': 'Construction of the Egyptian pyramids', 'correct_answer': '2'}, {'id': 'GK_17', 'question_text': 'Which happened earlier in history?', 'answer_1': 'Abraham Lincoln became President of USA', 'answer_2': 'George Bush became President of USA', 'correct_answer': '1'}, {'id': 'GK_18', 'question_text': 'The number of stars in the Milky Way is:', 'answer_1': 'Greater than 100 billion ', 'answer_2': 'Less than 1 billion', 'correct_answer': '1'}, {'id': 'GK_19', 'question_text': 'Which is Earths largest continent by surface size?', 'answer_1': 'North America', 'answer_2': 'Asia', 'correct_answer': '2'}, {'id': 'GK_20', 'question_text': 'Moderate earthquakes (5.0 - 5.9 on the Richter Scale) happen approximately twice a day.', 'answer_1': 'True', 'answer_2': 'False', 'correct_answer': '1'}, {'id': 'GK_21', 'question_text': 'The number of weeks in a year is approximately:', 'answer_1': '500', 'answer_2': '52', 'correct_answer': '2'}, {'id': 'GK_22', 'question_text': 'China has over 1 billion mobile cellular connections', 'answer_1': 'True', 'answer_2': 'False', 'correct_answer': '1'}, {'id': 'GK_23', 'question_text': 'Not all metals are attracted to magnets', 'answer_1': 'True', 'answer_2': 'False', 'correct_answer': '1'}, {'id': 'GK_24', 'question_text': 'Which comes closest in meaning to the following word: Antediluvian', 'answer_1': 'Ancient', 'answer_2': 'Liberal', 'correct_answer': '1'}, {'id': 'GK_25', 'question_text': 'Given: Some hair is red. No red is green. Logical conclusion: Anything green cannot be hair.', 'answer_1': 'True', 'answer_2': 'False', 'correct_answer': '2'}, {'id': 'GK_26', 'question_text': 'Given: Any glass requires cups to exist but cups can exist without glass. One cup can support only one glass. Logical conclusion: There are more cups existing than glasses.', 'answer_1': 'True', 'answer_2': 'False', 'correct_answer': '1'}, {'id': 'GK_27', 'question_text': 'Budapest is the capital of which county?', 'answer_1': 'Hungary', 'answer_2': 'Austria', 'correct_answer': '1'}, {'id': 'GK_28', 'question_text': 'Greenhouse effect refers to:', 'answer_1': 'Gases in the atmosphere that trap heat', 'answer_2': ""Impact to the Earth's ozone layer"", 'correct_answer': '1'}, {'id': 'GK_29', 'question_text': 'Who has a higher NBA career playoff points per game?', 'answer_1': 'Kobe Bryant', 'answer_2': 'Michael Jordan', 'correct_answer': '2'}, {'id': 'GK_30', 'question_text': '4 is a prime number.', 'answer_1': 'True', 'answer_2': 'False', 'correct_answer': '2'}, {'id': 'GK_31', 'question_text': 'Stretchiness, or the ability of an object or material to resume its normal shape after being stretched or compressed is?', 'answer_1': 'Electricity', 'answer_2': 'Elasticity', 'correct_answer': '2'}, {'id': 'GK_32', 'question_text': 'Which element is found in greater quantity in the Sun?', 'answer_1': 'Hydrogen', 'answer_2': 'Helium', 'correct_answer': '1'}, {'id': 'GK_33', 'question_text': 'Which planet in our solar system is closest to the Sun?', 'answer_1': 'Pluto', 'answer_2': 'Mercury', 'correct_answer': '2'}, {'id': 'GK_34', 'question_text': 'Scientists estimate global sea levels have increased by approximately how much in the last 100 odd years', 'answer_1': 'Less than 1 foot', 'answer_2': '3-4 feet', 'correct_answer': '1'}, {'id': 'GK_35', 'question_text': 'Global warming is a humanitarian initiative to slow down freezing in the North Pole.', 'answer_1': 'True', 'answer_2': 'False', 'correct_answer': '2'}, {'id': 'GK_36', 'question_text': 'Ocean currents carry heat from the equator toward the north and south poles.', 'answer_1': 'True', 'answer_2': 'False', 'correct_answer': '1'}, {'id': 'GK_37', 'question_text': 'Which champion boxer had the birth name Cassius Clay?', 'answer_1': 'Mike Tyson', 'answer_2': 'Muhammed Ali', 'correct_answer': '2'}, {'id': 'GK_38', 'question_text': 'Phnom penh is the capital of which country?', 'answer_1': 'Vietnam', 'answer_2': 'Cambodia', 'correct_answer': '2'}, {'id': 'GK_39', 'question_text': ""The Pacific Ocean's area is larger than all the earth's masses combined."", 'answer_1': 'True', 'answer_2': 'False', 'correct_answer': '1'}, {'id': 'GK_40', 'question_text': 'Which comes closest in meaning to the following word? Ersatz', 'answer_1': 'Fake', 'answer_2': 'Elite', 'correct_answer': '1'}, {'id': 'GK_41', 'question_text': 'Which comes closest in meaning to the following word? Zephyr', 'answer_1': 'Breeze', 'answer_2': 'Tide', 'correct_answer': '1'}, {'id': 'GK_42', 'question_text': 'Which happened earlier in history?', 'answer_1': 'Chinese issue the first paper money', 'answer_2': 'European sailors begin to use the magnetic compass', 'correct_answer': '1'}, {'id': 'GK_43', 'question_text': 'Which happened earlier in history?', 'answer_1': 'Alexander Graham Bell patents the telephone', 'answer_2': ""Charles Darwin publishes 'The Origin of Species'"", 'correct_answer': '2'}, {'id': 'GK_44', 'question_text': 'Which happened earlier in history?', 'answer_1': 'Julius Caesar getting assassinated', 'answer_2': 'Alexander the Great conquering Egypt', 'correct_answer': '2'}, {'id': 'GK_45', 'question_text': 'If it takes 5 machines 5 minutes to make 5 widgets, how long would it take 100 machines to make 100 widgets? _____ minutes', 'answer_1': '5 minutes', 'answer_2': '100 minutes', 'correct_answer': '1'}, {'id': 'GK_46', 'question_text': 'In a lake, there is a patch of lily pads. Every day, the patch doubles in size. If it takes 48 days for the patch to cover the entire lake, how long would it take for the patch to cover half of the lake? _____ days', 'answer_1': '24 days', 'answer_2': '47 days', 'correct_answer': '2'}, {'id': 'GK_47', 'question_text': 'Radioactive milk cannot be made safe by boiling it', 'answer_1': 'True', 'answer_2': 'False', 'correct_answer': '1'}, {'id': 'GK_48', 'question_text': 'All radioactivity is man-made.', 'answer_1': 'True', 'answer_2': 'False', 'correct_answer': '2'}, {'id': 'GK_49', 'question_text': 'What is the length of an Olympic swimming pool?', 'answer_1': '80 meters', 'answer_2': '50 meters', 'correct_answer': '2'}, {'id': 'GK_50', 'question_text': 'The highest natural surface temperature recorded on Earth has been:', 'answer_1': 'less than 55?øC', 'answer_2': 'greater than 55?øC', 'correct_answer': '2'}, {'id': 'GK_51', 'question_text': 'Global temperatures have been rising by about 10 degress every year over the last 10 years', 'answer_1': 'True', 'answer_2': 'False', 'correct_answer': '2'}, {'id': 'GK_52', 'question_text': 'There are approximately how many airports in the World?', 'answer_1': '10000', 'answer_2': '40000', 'correct_answer': '2'}, {'id': 'GK_53', 'question_text': 'The top 10 car manufacturing countries produced approximately how many new cars in 2014?', 'answer_1': '50 milion', 'answer_2': '10 million', 'correct_answer': '1'}, {'id': 'GK_54', 'question_text': 'What was the beta (early) version of the Internet called?', 'answer_1': 'ARPAnet', 'answer_2': 'Intranet', 'correct_answer': '1'}, {'id': 'GK_55', 'question_text': 'Autism has become an epidemic.', 'answer_1': 'True', 'answer_2': 'False', 'correct_answer': '2'}, {'id': 'GK_56', 'question_text': 'Lasers work by focusing sound waves.', 'answer_1': 'True', 'answer_2': 'False', 'correct_answer': '2'}, {'id': 'GK_57', 'question_text': 'Positive charges cannot flow in any conductor.', 'answer_1': 'True', 'answer_2': 'False', 'correct_answer': '2'}, {'id': 'GK_58', 'question_text': 'What light-sensitive cells in the eye detect colors?', 'answer_1': 'Cones', 'answer_2': 'Rods', 'correct_answer': '1'}, {'id': 'GK_59', 'question_text': 'Who was the first human in space?', 'answer_1': 'Neil Armstrong', 'answer_2': 'Yuri Gagarin', 'correct_answer': '2'}, {'id': 'GK_60', 'question_text': 'Which is the only country to qualify for every FIFA World Cup (soccer) since inception in 1930?', 'answer_1': 'Argentina', 'answer_2': 'Brazil', 'correct_answer': '2'}, {'id': 'GK_61', 'question_text': 'Which comes closest in meaning to the following word? Intransigent', 'answer_1': 'Transitory', 'answer_2': 'Inflexible', 'correct_answer': '2'}, {'id': 'GK_62', 'question_text': 'Which comes closest in meaning to the following word? Soporific', 'answer_1': ""Pertaining to one's self"", 'answer_2': 'Sleep inducing', 'correct_answer': '2'}, {'id': 'GK_63', 'question_text': 'Bats are not blind.', 'answer_1': 'True', 'answer_2': 'False', 'correct_answer': '1'}, {'id': 'GK_64', 'question_text': 'Human children have more bones than adults.', 'answer_1': 'True', 'answer_2': 'False', 'correct_answer': '1'}, {'id': 'GK_65', 'question_text': 'The land area of Canada is approximately how many times the land area of India?', 'answer_1': 'Half', 'answer_2': '3 times', 'correct_answer': '2'}, {'id': 'GK_66', 'question_text': 'The number of tourist arrivals per year in China (as of 2018) were approximately:', 'answer_1': '141 million', 'answer_2': '31 million', 'correct_answer': '1'}, {'id': 'GK_67', 'question_text': 'People use approximately only 10% of their brains', 'answer_1': 'True', 'answer_2': 'False', 'correct_answer': '2'}, {'id': 'GK_68', 'question_text': 'People with schizophrenia have multiple personalities.', 'answer_1': 'True', 'answer_2': 'False', 'correct_answer': '2'}, {'id': 'GK_69', 'question_text': 'Which is the smallest independent country?', 'answer_1': 'Monaco', 'answer_2': 'Vatican City', 'correct_answer': '2'}, {'id': 'GK_70', 'question_text': 'A man bought a car for $10,000. He sold the car once the price fell by 17%, and invested the money so that he then got back $10,000. His profit on the invested amount is approximately:', 'answer_1': '0.17', 'answer_2': '0.2', 'correct_answer': '2'}, {'id': 'GK_71', 'question_text': 'Ocean acidification is caused by:', 'answer_1': 'Chemical spills in the ocean', 'answer_2': 'Absorption of carbon dioxide by the ocean', 'correct_answer': '2'}, {'id': 'GK_72', 'question_text': 'The total number of cinema visits in USA in 2018 were approximately how much?', 'answer_1': '130 million', 'answer_2': '1.3 billion', 'correct_answer': '2'}, {'id': 'GK_73', 'question_text': 'ESP (extra sensory perception) is not a scientifically well-established phenomenon', 'answer_1': 'True', 'answer_2': 'False', 'correct_answer': '1'}, {'id': 'GK_74', 'question_text': 'It is possible for water to exist in liquid form below 0 degrees C (32 degrees F)', 'answer_1': 'True', 'answer_2': 'False', 'correct_answer': '1'}, {'id': 'GK_75', 'question_text': ""In 2006, the status of the then planet Pluto was reduced to 'dwarf Planet' so that it was no longer officially the ninth planet in our Solar system. The reason for this was because its' gravitational force was not enough to"", 'answer_1': 'Maintain its regular orbit around the sun', 'answer_2': 'Clear its neighbouring region of planetesimals and asteroids etc.', 'correct_answer': '2'}, {'id': 'GK_76', 'question_text': 'Which two sports both have 11 members of each team playing on the field (under normal circumstances)?', 'answer_1': 'Field hockey and American Football', 'answer_2': 'Ice hockey & Soccer', 'correct_answer': '1'}, {'id': 'GK_77', 'question_text': 'Which happened earlier in history?', 'answer_1': 'Genghis Khan leads the Mongol army', 'answer_2': 'Oxford University is founded in England', 'correct_answer': '2'}, {'id': 'GK_78', 'question_text': 'A bat and a ball cost $1.10 in total. The bat costs $1.00 more than the ball. How much does the ball cost? _____ cents', 'answer_1': '10 cents', 'answer_2': '5 cents', 'correct_answer': '2'}, {'id': 'GK_79', 'question_text': 'Which one of the below is not a correct possible solution for x. | x - 9 | <  10.', 'answer_1': '-4', 'answer_2': '4', 'correct_answer': '1'}, {'id': 'GK_80', 'question_text': 'Most diamonds are not formed from coal.', 'answer_1': 'True', 'answer_2': 'False', 'correct_answer': '1'}, {'id': 'GK_81', 'question_text': 'If you are standing on the Equator, your approximate rotational speed is:', 'answer_1': 'Less than 1,000 km/h', 'answer_2': 'Greater than 1000 km/h', 'correct_answer': '2'}, {'id': 'GK_82', 'question_text': 'Plants use oxygen.', 'answer_1': 'True', 'answer_2': 'False', 'correct_answer': '1'}, {'id': 'GK_83', 'question_text': ""Jupiter's largest moon Ganymede is smaller (in diameter) than the planet Mercury."", 'answer_1': 'True', 'answer_2': 'False', 'correct_answer': '2'}, {'id': 'GK_84', 'question_text': 'How many gold medals did Michael Phelps win at the Beijing Olympics?', 'answer_1': '4', 'answer_2': '8', 'correct_answer': '2'}, {'id': 'GK_85', 'question_text': 'Most psychiatric therapies are based on Freud.', 'answer_1': 'True', 'answer_2': 'False', 'correct_answer': '2'}, {'id': 'GK_86', 'question_text': 'The velocity of a radio wave and a visible light wave in a vacuum are the same.', 'answer_1': 'True', 'answer_2': 'False', 'correct_answer': '1'}, {'id': 'GK_87', 'question_text': 'House flies have an average life span of less than 2 days.', 'answer_1': 'True', 'answer_2': 'False', 'correct_answer': '2'}, {'id': 'GK_88', 'question_text': 'People with amnesia forget all details of their earlier life.', 'answer_1': 'True', 'answer_2': 'False', 'correct_answer': '2'}, {'id': 'GK_89', 'question_text': 'Humans have evolved from monkeys.', 'answer_1': 'True', 'answer_2': 'False', 'correct_answer': '2'}, {'id': 'GK_90', 'question_text': 'The reason we experience seasons is because the distance between the earth and sun changes.', 'answer_1': 'True', 'answer_2': 'False', 'correct_answer': '2'}, {'id': 'GK_91', 'question_text': 'A ball made of solid steel will not float on water. However, when steel is used to make a boat it floats because the steel is made less dense.', 'answer_1': 'True', 'answer_2': 'False', 'correct_answer': '2'}, {'id': 'GK_92', 'question_text': 'Which happened earlier in history? ', 'answer_1': 'Sputnik I becomes the first man-made satellite', 'answer_2': 'Nautilus,  the first nuclear powered submarine,  is launched', 'correct_answer': '2'}, {'id': 'GK_93', 'question_text': 'Which country remained neutral throughout World War II?', 'answer_1': 'Turkey', 'answer_2': 'Afghanistan', 'correct_answer': '2'}, {'id': 'GK_94', 'question_text': 'If A is neccessary for B to occur and C is sufficient for B to occur, then it follows that if C has occured, it implies that A has also occured.', 'answer_1': 'True', 'answer_2': 'False', 'correct_answer': '1'}], 'IMPOSSIBLE_QUESTIONS': [{'id': 'IQ_1', 'question_text': 'When did the battle of Kavkav take place?', 'answer_1': 'Before 1647', 'answer_2': 'After 1647', 'correct_answer': '3'}, {'id': 'IQ_2', 'question_text': 'How many sides does a Detseroid have?', 'answer_1': 'More than 20', 'answer_2': 'Less than 20', 'correct_answer': '3'}, {'id': 'IQ_3', 'question_text': 'What is the population of Synomle?', 'answer_1': 'More than 10,000', 'answer_2': 'Less than 10,000', 'correct_answer': '3'}, {'id': 'IQ_4', 'question_text': ""What is the most prominent symptom of Seradot's disease?"", 'answer_1': 'A fever', 'answer_2': 'A rash', 'correct_answer': '3'}, {'id': 'IQ_5', 'question_text': 'What is the Parlichev method?', 'answer_1': 'A way of extracting minerals from soil', 'answer_2': 'A way of determining the distance to a star', 'correct_answer': '3'}, {'id': 'IQ_6', 'question_text': 'Resistance Configuration Theory is a psychological theory that explains:', 'answer_1': 'How people avoid blame and why they do not recognize when something is their fault', 'answer_2': 'Why certain people do not try new experiences', 'correct_answer': '3'}, {'id': 'IQ_7', 'question_text': 'When did the Laikrev Uprising occur?', 'answer_1': 'During the Renaissance', 'answer_2': 'During the Industrial Revolution', 'correct_answer': '3'}, {'id': 'IQ_8', 'question_text': 'What is the nutritional value of a Golgrest Fruit?', 'answer_1': 'High in Protein', 'answer_2': 'Low in Carbohydrates', 'correct_answer': '3'}, {'id': 'IQ_9', 'question_text': 'What is the speed of a Blargan Horse?', 'answer_1': 'Faster than a Cheetah', 'answer_2': 'Slower than a Snail', 'correct_answer': '3'}, {'id': 'IQ_10', 'question_text': ""What is the cure for Zolbrod's syndrome?"", 'answer_1': 'Immunotherapy', 'answer_2': 'Radiation Therapy', 'correct_answer': '3'}, {'id': 'IQ_11', 'question_text': 'What does the Veklin Procedure involve?', 'answer_1': 'A sequence of precise surgical incisions', 'answer_2': 'A complex mathematical equation', 'correct_answer': '3'}, {'id': 'IQ_12', 'question_text': 'How does Binoxelation Impact Theory explain the growth of crystals?', 'answer_1': 'Through thermodynamics', 'answer_2': 'Through quantum mechanics', 'correct_answer': '3'}, {'id': 'IQ_13', 'question_text': 'What are the ingredients of a traditional Zibrune stew?', 'answer_1': 'Magical herbs and spices', 'answer_2': 'Alien sea creatures', 'correct_answer': '3'}, {'id': 'IQ_14', 'question_text': ""What's the main purpose of a Tantrigon device?"", 'answer_1': 'To communicate with other dimensions', 'answer_2': 'To teleport through space', 'correct_answer': '3'}, {'id': 'IQ_15', 'question_text': ""What's the habitat of a Rojixon bird?"", 'answer_1': 'Deserts', 'answer_2': 'Tropical rainforests', 'correct_answer': '3'}, {'id': 'IQ_16', 'question_text': ""What's the side effect of Grilpax's disease?"", 'answer_1': 'Change in hair color', 'answer_2': 'Ability to sing beautifully', 'correct_answer': '3'}, {'id': 'IQ_17', 'question_text': 'What is the Kraghold method used for?', 'answer_1': 'Predicting stock market trends', 'answer_2': 'Improving memory recall', 'correct_answer': '3'}, {'id': 'IQ_18', 'question_text': 'The Diflective Assumption Theory helps us understand:', 'answer_1': 'How memories are stored in the brain', 'answer_2': 'How emotions impact our decision making', 'correct_answer': '3'}]}","{'SHOW_TASK': True, 'TASK_ORDER_INDEX': 5, 'USE_ANCHOR_VERSION': True, 'SHOW_CONDITIONS_DURING_TRIAL': False, 'FUNCTIONS': ['linear', 'exponential'], 'DIRECTIONS': ['positive', 'negative'], 'DATAPOINTS': ['datapoints_10', 'datapoints_30'], 'NOISE': {'low': 1.9, 'high': 6.2}, 'GRAPHS_PER_CONDITION': 1, 'ANCHOR_FORM_DATA': {'linear': {'positive': {'low': {'datapoints_10': [0.34115646248517334, 0.3765395963783339, 0.41148386836173906, 0.4117070833034764, 0.4245283116045815, 0.4753310333455402, 0.4749335161868271, 0.4980801567854018, 0.5143743105934254, 0.5286114342894821], 'datapoints_30': [0.338051731602363, 0.3330257970415612, 0.34990643982570696, 0.3979156270866805, 0.355689274819715, 0.34816674552343596, 0.40406685317028546, 0.38590977337132687, 0.41922055537368047, 0.4765739333645901, 0.42841743430686363, 0.4362982076669584, 0.47231727377421956, 0.4528003399052783, 0.4496266411732442, 0.49608090368255164, 0.49319350814736423, 0.5117788815213205, 0.5156466493494118, 0.5585570378987667, 0.5358246251249943, 0.541924887935256, 0.5543337833614204, 0.5635950245334594, 0.5681304645109535, 0.5614204669246843, 0.5904859654214949, 0.5642960698750855, 0.5922175800106475, 0.6398378802217878]}, 'high': {'datapoints_10': [0.3910651988152279, 0.5001735157154249, 0.372034728100275, 0.42193653557865374, 0.43539846748011984, 0.5200555752383477, 0.4170994696352142, 0.40503546912348154, 0.5561447290289464, 0.4960282903363501], 'datapoints_30': [0.41626054968638876, 0.25066251581351967, 0.381156495748144, 0.349562532733616, 0.510153650795019, 0.339661787310495, 0.4019933261362406, 0.36243629029303204, 0.3765627455985965, 0.4593813531417261, 0.5198357837381841, 0.40603015360278655, 0.4684453450834761, 0.5897437499177423, 0.450371746474618, 0.5158147173364359, 0.5336132261002206, 0.44791032746270565, 0.4508809239246617, 0.5917479215382393, 0.4901734512667722, 0.5476594803776252, 0.6307875890314759, 0.5930112760214684, 0.5352278922026753, 0.5988256774646287, 0.6547198502347084, 0.5145539563355018, 0.5278100708497258, 0.7449872122868164]}}, 'negative': {'low': {'datapoints_10': [0.6087786075359396, 0.620716853029249, 0.6309761140310952, 0.5941634258185463, 0.5627129105896425, 0.5472028595105919, 0.5037909638897444, 0.4675677679254043, 0.4811522817986201, 0.43958475350742887], 'datapoints_30': [0.6885822942966768, 0.6502837860608616, 0.6367476440991809, 0.6377750012701976, 0.6417527406762048, 0.6296076326482521, 0.6065806483043996, 0.5805709254266851, 0.5774647850088399, 0.5532169536354858, 0.5428188959717446, 0.5571208318188385, 0.5461532657172055, 0.5448971084638943, 0.5287641858849222, 0.5650457981974911, 0.49805215397468156, 0.5033596031451419, 0.4888152623064473, 0.4808595153134056, 0.5038264284385694, 0.45214978386302207, 0.46192195316419066, 0.4481170989935159, 0.4402132201576863, 0.3974208828685908, 0.40085244408829807, 0.3983862279646233, 0.38108939410245546, 0.37664401123159275]}, 'high': {'datapoints_10': [0.6301439381807655, 0.661310277813274, 0.6631348248481685, 0.5872813536995066, 0.5547447985406625, 0.5695707257948328, 0.46485870207149854, 0.41355924054023274, 0.4074709182218148, 0.46207247099328397], 'datapoints_30': [0.7359247187703974, 0.6351347347828641, 0.6076095307298874, 0.7773840379134429, 0.5082857640815118, 0.6614273620293092, 0.6113649502321331, 0.4760175344300979, 0.5979632421126583, 0.5219008329317101, 0.49887119006199426, 0.6103586804853446, 0.5088013481346669, 0.4377218077004442, 0.5639118329076132, 0.509926059675878, 0.5059401033813838, 0.4584966214013728, 0.4947524848657233, 0.5103622231729921, 0.3903616082943801, 0.46723432258625175, 0.3934592137103292, 0.4404351835794895, 0.4175107811092834, 0.38539274585641986, 0.46595249215046525, 0.37101818133864667, 0.3569895078268806, 0.3956897469697056]}}}, 'exponential': {'positive': {'low': {'datapoints_10': [0.16327880613062648, 0.17919633843797567, 0.20086653529989587, 0.16594616203369358, 0.15480130361244376, 0.22729587449385674, 0.2063177237827766, 0.2440793700193259, 0.2223991099298123, 0.20674450167934375], 'datapoints_30': [0.17647811589242068, 0.1603888088372734, 0.1477877654557926, 0.1775083817152591, 0.17324895609425814, 0.17301279294104024, 0.16295305024394047, 0.1750497487883282, 0.19812998720511388, 0.18906599399132654, 0.17252961059388225, 0.21832054272630838, 0.20061604773056066, 0.21569035107441945, 0.20221454893750868, 0.2009511294680771, 0.21999349387537173, 0.17708222732738416, 0.2053371245448363, 0.21637890765706, 0.22766517895814004, 0.22006021673673412, 0.25474252792874297, 0.2674734308825046, 0.27041795782760764, 0.31032172922091905, 0.3344974269154627, 0.33850899275175783, 0.36165343416949214, 0.40410400073144787]}, 'high': {'datapoints_10': [0.06065827664244287, 0.22071900323405075, 0.16688139034169605, 0.28332876766443726, 0.03427619555277513, 0.08574335795303059, 0.2692281041484615, 0.17364257640101796, 0.28796378251934207, 0.2608566412631452], 'datapoints_30': [0.1254212488649957, 0.22866215686106964, 0.26116605199804915, 0.1710209597256598, 0.23320414363863287, 0.09432676099845087, 0.23817090216054937, 0.1484221599860525, 0.15358893589671854, 0.18131223318747147, 0.15689859878264795, 0.2577764389898848, 0.28704631852392704, 0.13325377052556156, 0.2097607163644799, 0.15948041490921971, 0.16401082332631733, 0.11228041315179328, 0.26590148797585544, 0.2813661409063391, 0.08043178051581819, 0.21265852655231593, 0.22471849368306346, 0.1399815260596115, 0.2544974396118038, 0.241562820088657, 0.3715004252837194, 0.2683482605373099, 0.44893473999690475, 0.4071352583842313]}}, 'negative': {'low': {'datapoints_10': [0.8402470799341831, 0.8154394141387136, 0.8411997693411258, 0.8783061607941451, 0.822693604419397, 0.8479348631216604, 0.8077093837573802, 0.8040987465184901, 0.7764925191372092, 0.7489861748357005], 'datapoints_30': [0.8521123879858051, 0.8056244530851355, 0.8093902656656589, 0.8220544022679095, 0.8536675799887886, 0.8525003303012049, 0.7877281742557164, 0.8239260784597999, 0.8412809844330105, 0.830988817395726, 0.8109986585455291, 0.7929587654587164, 0.8189014935721824, 0.8313514502253465, 0.8144436910523647, 0.8147318308145435, 0.7962645384441192, 0.803333459941442, 0.7724455368626252, 0.8172619210944719, 0.7749234991079835, 0.7681810197037903, 0.7218062421124365, 0.7655162510397878, 0.7206214309684988, 0.706872668084013, 0.6905002492951642, 0.6973890974970073, 0.6412480410663757, 0.5754222737767506]}, 'high': {'datapoints_10': [0.7213755576743069, 0.8036732544863568, 0.8103833413370698, 0.8581014356289604, 0.7955857886080576, 0.8448640740157202, 0.8113051077741686, 0.8156735549765426, 0.8421875514777433, 0.6889628793220086], 'datapoints_30': [0.8527186887443308, 0.7036501880122192, 0.8651743937852913, 0.8262859816767401, 0.791006301962607, 0.7817727682042899, 0.9323171010354779, 0.8647724825161771, 0.8161633827818311, 0.7828265343984723, 0.8678140810636351, 0.812950748462958, 0.7418850418837353, 0.8065368221167815, 0.8216400497937552, 0.8779964134361811, 0.7734438000176441, 0.8948327194769748, 0.8032712465061811, 0.7118788023578041, 0.7984076894186631, 0.765173320675403, 0.7590687570763885, 0.6852489670606751, 0.7750919276105943, 0.6039266338107293, 0.6972955357912693, 0.6645281146989682, 0.7105921648610939, 0.5278501585705928]}}}}, 'PT_TRIALS_N': 4, 'PT_TRIALS_PER_BLOCK': 4, 'PT_BLOCKS': 1, 'TEST_TRIALS_N': 16, 'TEST_TRIALS_PER_BLOCK': 16, 'TEST_BLOCKS': 1}","{'SHOW_TASK': True, 'TASK_ORDER_INDEX': 6, 'USE_ANCHOR_VERSION': True, 'TASK_VERSION': 'easy', 'DRAW_WITH_REPLACEMENT': True, 'UNIQUE_TEST_TRIALS_N': 8, 'DRAWS_PER_UNIQUE_TRIAL': 5, 'BALLS_PER_DRAW': 1, 'BALL_SPLITS': [[40, 60], [30, 70]], 'TASK_VERSION_PARAMETERS': {'easy': {'labels': ['Definitely left box', 'Equally likely to be either left or right', 'Definitely right box'], 'slider_initial_text': '50% left, 50% right', 'question': 'What is the probability that this draw was from the left vs right box?'}, 'hard': {'labels': ['Definitely NOT blue', 'Equally likely to be blue as not blue', 'Definitely blue'], 'slider_initial_text': '50% blue', 'question': 'What is the probability that the next drawn ball will be blue?'}}, 'ANCHOR_FORM': {'easy': {'ball_splits': [[40, 60], [40, 60], [40, 60], [40, 60], [40, 60], [40, 60], [40, 60], [40, 60], [40, 60], [40, 60], [30, 70], [30, 70], [30, 70], [30, 70], [30, 70], [30, 70], [30, 70], [30, 70], [30, 70], [30, 70], [30, 70], [30, 70], [30, 70], [30, 70], [30, 70], [40, 60], [40, 60], [40, 60], [40, 60], [40, 60], [40, 60], [40, 60], [40, 60], [40, 60], [40, 60], [30, 70], [30, 70], [30, 70], [30, 70], [30, 70]], 'left_box_majority_color': ['blue', 'blue', 'blue', 'blue', 'blue', 'blue', 'blue', 'blue', 'blue', 'blue', 'blue', 'blue', 'blue', 'blue', 'blue', 'red', 'red', 'red', 'red', 'red', 'blue', 'blue', 'blue', 'blue', 'blue', 'red', 'red', 'red', 'red', 'red', 'red', 'red', 'red', 'red', 'red', 'red', 'red', 'red', 'red', 'red'], 'selected_box_majority_color': ['blue', 'blue', 'blue', 'blue', 'blue', 'red', 'red', 'red', 'red', 'red', 'red', 'red', 'red', 'red', 'red', 'blue', 'blue', 'blue', 'blue', 'blue', 'blue', 'blue', 'blue', 'blue', 'blue', 'red', 'red', 'red', 'red', 'red', 'blue', 'blue', 'blue', 'blue', 'blue', 'red', 'red', 'red', 'red', 'red'], 'draws': [{'current': ['blue'], 'past': []}, {'current': ['blue'], 'past': [['blue']]}, {'current': ['blue'], 'past': [['blue'], ['blue']]}, {'current': ['blue'], 'past': [['blue'], ['blue'], ['blue']]}, {'current': ['blue'], 'past': [['blue'], ['blue'], ['blue'], ['blue']]}, {'current': ['red'], 'past': []}, {'current': ['red'], 'past': [['red']]}, {'current': ['blue'], 'past': [['red'], ['red']]}, {'current': ['red'], 'past': [['red'], ['red'], ['blue']]}, {'current': ['blue'], 'past': [['red'], ['red'], ['blue'], ['red']]}, {'current': ['red'], 'past': []}, {'current': ['red'], 'past': [['red']]}, {'current': ['red'], 'past': [['red'], ['red']]}, {'current': ['red'], 'past': [['red'], ['red'], ['red']]}, {'current': ['red'], 'past': [['red'], ['red'], ['red'], ['red']]}, {'current': ['red'], 'past': []}, {'current': ['red'], 'past': [['red']]}, {'current': ['red'], 'past': [['red'], ['red']]}, {'current': ['blue'], 'past': [['red'], ['red'], ['red']]}, {'current': ['blue'], 'past': [['red'], ['red'], ['red'], ['blue']]}, {'current': ['blue'], 'past': []}, {'current': ['red'], 'past': [['blue']]}, {'current': ['blue'], 'past': [['blue'], ['red']]}, {'current': ['blue'], 'past': [['blue'], ['red'], ['blue']]}, {'current': ['red'], 'past': [['blue'], ['red'], ['blue'], ['blue']]}, {'current': ['red'], 'past': []}, {'current': ['red'], 'past': [['red']]}, {'current': ['blue'], 'past': [['red'], ['red']]}, {'current': ['red'], 'past': [['red'], ['red'], ['blue']]}, {'current': ['red'], 'past': [['red'], ['red'], ['blue'], ['red']]}, {'current': ['red'], 'past': []}, {'current': ['red'], 'past': [['red']]}, {'current': ['blue'], 'past': [['red'], ['red']]}, {'current': ['red'], 'past': [['red'], ['red'], ['blue']]}, {'current': ['red'], 'past': [['red'], ['red'], ['blue'], ['red']]}, {'current': ['red'], 'past': []}, {'current': ['red'], 'past': [['red']]}, {'current': ['blue'], 'past': [['red'], ['red']]}, {'current': ['red'], 'past': [['red'], ['red'], ['blue']]}, {'current': ['red'], 'past': [['red'], ['red'], ['blue'], ['red']]}]}, 'hard': {'ball_splits': [[40, 60], [40, 60], [40, 60], [40, 60], [40, 60], [30, 70], [30, 70], [30, 70], [30, 70], [30, 70], [40, 60], [40, 60], [40, 60], [40, 60], [40, 60], [40, 60], [40, 60], [40, 60], [40, 60], [40, 60], [30, 70], [30, 70], [30, 70], [30, 70], [30, 70], [30, 70], [30, 70], [30, 70], [30, 70], [30, 70], [40, 60], [40, 60], [40, 60], [40, 60], [40, 60], [30, 70], [30, 70], [30, 70], [30, 70], [30, 70]], 'left_box_majority_color': ['blue', 'blue', 'blue', 'blue', 'blue', 'blue', 'blue', 'blue', 'blue', 'blue', 'red', 'red', 'red', 'red', 'red', 'red', 'red', 'red', 'red', 'red', 'blue', 'blue', 'blue', 'blue', 'blue', 'red', 'red', 'red', 'red', 'red', 'red', 'red', 'red', 'red', 'red', 'blue', 'blue', 'blue', 'blue', 'blue'], 'selected_box_majority_color': ['blue', 'blue', 'blue', 'blue', 'blue', 'blue', 'blue', 'blue', 'blue', 'blue', 'red', 'red', 'red', 'red', 'red', 'red', 'red', 'red', 'red', 'red', 'red', 'red', 'red', 'red', 'red', 'blue', 'blue', 'blue', 'blue', 'blue', 'blue', 'blue', 'blue', 'blue', 'blue', 'red', 'red', 'red', 'red', 'red'], 'draws': [{'current': ['blue'], 'past': []}, {'current': ['blue'], 'past': [['blue']]}, {'current': ['red'], 'past': [['blue'], ['blue']]}, {'current': ['blue'], 'past': [['blue'], ['blue'], ['red']]}, {'current': ['blue'], 'past': [['blue'], ['blue'], ['red'], ['blue']]}, {'current': ['blue'], 'past': []}, {'current': ['red'], 'past': [['blue']]}, {'current': ['red'], 'past': [['blue'], ['red']]}, {'current': ['blue'], 'past': [['blue'], ['red'], ['red']]}, {'current': ['blue'], 'past': [['blue'], ['red'], ['red'], ['blue']]}, {'current': ['red'], 'past': []}, {'current': ['blue'], 'past': [['red']]}, {'current': ['blue'], 'past': [['red'], ['blue']]}, {'current': ['red'], 'past': [['red'], ['blue'], ['blue']]}, {'current': ['blue'], 'past': [['red'], ['blue'], ['blue'], ['red']]}, {'current': ['red'], 'past': []}, {'current': ['blue'], 'past': [['red']]}, {'current': ['red'], 'past': [['red'], ['blue']]}, {'current': ['red'], 'past': [['red'], ['blue'], ['red']]}, {'current': ['red'], 'past': [['red'], ['blue'], ['red'], ['red']]}, {'current': ['blue'], 'past': []}, {'current': ['blue'], 'past': [['blue']]}, {'current': ['red'], 'past': [['blue'], ['blue']]}, {'current': ['blue'], 'past': [['blue'], ['blue'], ['red']]}, {'current': ['blue'], 'past': [['blue'], ['blue'], ['red'], ['blue']]}, {'current': ['blue'], 'past': []}, {'current': ['blue'], 'past': [['blue']]}, {'current': ['red'], 'past': [['blue'], ['blue']]}, {'current': ['blue'], 'past': [['blue'], ['blue'], ['red']]}, {'current': ['blue'], 'past': [['blue'], ['blue'], ['red'], ['blue']]}, {'current': ['blue'], 'past': []}, {'current': ['blue'], 'past': [['blue']]}, {'current': ['blue'], 'past': [['blue'], ['blue']]}, {'current': ['red'], 'past': [['blue'], ['blue'], ['blue']]}, {'current': ['red'], 'past': [['blue'], ['blue'], ['blue'], ['red']]}, {'current': ['blue'], 'past': []}, {'current': ['red'], 'past': [['blue']]}, {'current': ['red'], 'past': [['blue'], ['red']]}, {'current': ['blue'], 'past': [['blue'], ['red'], ['red']]}, {'current': ['red'], 'past': [['blue'], ['red'], ['red'], ['blue']]}]}}, 'FADE_IN_ANIMATION_DURATION': 1000, 'BALL_MOVE_DURATION': 200, 'WAIT_AFTER_BOX_OPENING_TO_DRAW_BALLS': 500, 'UNIQUE_PT_TRIALS_N': 2, 'PT_TRIALS_N': 10, 'PT_TRIALS_PER_BLOCK': 10, 'PT_BLOCKS': 1, 'TEST_TRIALS_N': 40, 'TEST_TRIALS_PER_BLOCK': 40, 'TEST_BLOCKS': 1}","{'SHOW_TASK': True, 'TASK_ORDER_INDEX': 7, 'USE_ANCHOR_VERSION': False, 'TASK_VERSION': 'hard', 'DRAW_WITH_REPLACEMENT': True, 'UNIQUE_TEST_TRIALS_N': 8, 'DRAWS_PER_UNIQUE_TRIAL': 5, 'BALLS_PER_DRAW': 1, 'BALL_SPLITS': [[40, 60], [30, 70]], 'TASK_VERSION_PARAMETERS': {'easy': {'labels': ['Definitely left box', 'Equally likely to be either left or right', 'Definitely right box'], 'slider_initial_text': '50% left, 50% right', 'question': 'What is the probability that this draw was from the left vs right box?'}, 'hard': {'labels': ['Definitely NOT blue', 'Equally likely to be blue as not blue', 'Definitely blue'], 'slider_initial_text': '50% blue', 'question': 'What is the probability that the next drawn ball will be blue?'}}, 'ANCHOR_FORM': {'easy': {'ball_splits': [[40, 60], [40, 60], [40, 60], [40, 60], [40, 60], [40, 60], [40, 60], [40, 60], [40, 60], [40, 60], [30, 70], [30, 70], [30, 70], [30, 70], [30, 70], [30, 70], [30, 70], [30, 70], [30, 70], [30, 70], [30, 70], [30, 70], [30, 70], [30, 70], [30, 70], [40, 60], [40, 60], [40, 60], [40, 60], [40, 60], [40, 60], [40, 60], [40, 60], [40, 60], [40, 60], [30, 70], [30, 70], [30, 70], [30, 70], [30, 70]], 'left_box_majority_color': ['blue', 'blue', 'blue', 'blue', 'blue', 'blue', 'blue', 'blue', 'blue', 'blue', 'blue', 'blue', 'blue', 'blue', 'blue', 'red', 'red', 'red', 'red', 'red', 'blue', 'blue', 'blue', 'blue', 'blue', 'red', 'red', 'red', 'red', 'red', 'red', 'red', 'red', 'red', 'red', 'red', 'red', 'red', 'red', 'red'], 'selected_box_majority_color': ['blue', 'blue', 'blue', 'blue', 'blue', 'red', 'red', 'red', 'red', 'red', 'red', 'red', 'red', 'red', 'red', 'blue', 'blue', 'blue', 'blue', 'blue', 'blue', 'blue', 'blue', 'blue', 'blue', 'red', 'red', 'red', 'red', 'red', 'blue', 'blue', 'blue', 'blue', 'blue', 'red', 'red', 'red', 'red', 'red'], 'draws': [{'current': ['blue'], 'past': []}, {'current': ['blue'], 'past': [['blue']]}, {'current': ['blue'], 'past': [['blue'], ['blue']]}, {'current': ['blue'], 'past': [['blue'], ['blue'], ['blue']]}, {'current': ['blue'], 'past': [['blue'], ['blue'], ['blue'], ['blue']]}, {'current': ['red'], 'past': []}, {'current': ['red'], 'past': [['red']]}, {'current': ['blue'], 'past': [['red'], ['red']]}, {'current': ['red'], 'past': [['red'], ['red'], ['blue']]}, {'current': ['blue'], 'past': [['red'], ['red'], ['blue'], ['red']]}, {'current': ['red'], 'past': []}, {'current': ['red'], 'past': [['red']]}, {'current': ['red'], 'past': [['red'], ['red']]}, {'current': ['red'], 'past': [['red'], ['red'], ['red']]}, {'current': ['red'], 'past': [['red'], ['red'], ['red'], ['red']]}, {'current': ['red'], 'past': []}, {'current': ['red'], 'past': [['red']]}, {'current': ['red'], 'past': [['red'], ['red']]}, {'current': ['blue'], 'past': [['red'], ['red'], ['red']]}, {'current': ['blue'], 'past': [['red'], ['red'], ['red'], ['blue']]}, {'current': ['blue'], 'past': []}, {'current': ['red'], 'past': [['blue']]}, {'current': ['blue'], 'past': [['blue'], ['red']]}, {'current': ['blue'], 'past': [['blue'], ['red'], ['blue']]}, {'current': ['red'], 'past': [['blue'], ['red'], ['blue'], ['blue']]}, {'current': ['red'], 'past': []}, {'current': ['red'], 'past': [['red']]}, {'current': ['blue'], 'past': [['red'], ['red']]}, {'current': ['red'], 'past': [['red'], ['red'], ['blue']]}, {'current': ['red'], 'past': [['red'], ['red'], ['blue'], ['red']]}, {'current': ['red'], 'past': []}, {'current': ['red'], 'past': [['red']]}, {'current': ['blue'], 'past': [['red'], ['red']]}, {'current': ['red'], 'past': [['red'], ['red'], ['blue']]}, {'current': ['red'], 'past': [['red'], ['red'], ['blue'], ['red']]}, {'current': ['red'], 'past': []}, {'current': ['red'], 'past': [['red']]}, {'current': ['blue'], 'past': [['red'], ['red']]}, {'current': ['red'], 'past': [['red'], ['red'], ['blue']]}, {'current': ['red'], 'past': [['red'], ['red'], ['blue'], ['red']]}]}, 'hard': {'ball_splits': [[40, 60], [40, 60], [40, 60], [40, 60], [40, 60], [30, 70], [30, 70], [30, 70], [30, 70], [30, 70], [40, 60], [40, 60], [40, 60], [40, 60], [40, 60], [40, 60], [40, 60], [40, 60], [40, 60], [40, 60], [30, 70], [30, 70], [30, 70], [30, 70], [30, 70], [30, 70], [30, 70], [30, 70], [30, 70], [30, 70], [40, 60], [40, 60], [40, 60], [40, 60], [40, 60], [30, 70], [30, 70], [30, 70], [30, 70], [30, 70]], 'left_box_majority_color': ['blue', 'blue', 'blue', 'blue', 'blue', 'blue', 'blue', 'blue', 'blue', 'blue', 'red', 'red', 'red', 'red', 'red', 'red', 'red', 'red', 'red', 'red', 'blue', 'blue', 'blue', 'blue', 'blue', 'red', 'red', 'red', 'red', 'red', 'red', 'red', 'red', 'red', 'red', 'blue', 'blue', 'blue', 'blue', 'blue'], 'selected_box_majority_color': ['blue', 'blue', 'blue', 'blue', 'blue', 'blue', 'blue', 'blue', 'blue', 'blue', 'red', 'red', 'red', 'red', 'red', 'red', 'red', 'red', 'red', 'red', 'red', 'red', 'red', 'red', 'red', 'blue', 'blue', 'blue', 'blue', 'blue', 'blue', 'blue', 'blue', 'blue', 'blue', 'red', 'red', 'red', 'red', 'red'], 'draws': [{'current': ['blue'], 'past': []}, {'current': ['blue'], 'past': [['blue']]}, {'current': ['red'], 'past': [['blue'], ['blue']]}, {'current': ['blue'], 'past': [['blue'], ['blue'], ['red']]}, {'current': ['blue'], 'past': [['blue'], ['blue'], ['red'], ['blue']]}, {'current': ['blue'], 'past': []}, {'current': ['red'], 'past': [['blue']]}, {'current': ['red'], 'past': [['blue'], ['red']]}, {'current': ['blue'], 'past': [['blue'], ['red'], ['red']]}, {'current': ['blue'], 'past': [['blue'], ['red'], ['red'], ['blue']]}, {'current': ['red'], 'past': []}, {'current': ['blue'], 'past': [['red']]}, {'current': ['blue'], 'past': [['red'], ['blue']]}, {'current': ['red'], 'past': [['red'], ['blue'], ['blue']]}, {'current': ['blue'], 'past': [['red'], ['blue'], ['blue'], ['red']]}, {'current': ['red'], 'past': []}, {'current': ['blue'], 'past': [['red']]}, {'current': ['red'], 'past': [['red'], ['blue']]}, {'current': ['red'], 'past': [['red'], ['blue'], ['red']]}, {'current': ['red'], 'past': [['red'], ['blue'], ['red'], ['red']]}, {'current': ['blue'], 'past': []}, {'current': ['blue'], 'past': [['blue']]}, {'current': ['red'], 'past': [['blue'], ['blue']]}, {'current': ['blue'], 'past': [['blue'], ['blue'], ['red']]}, {'current': ['blue'], 'past': [['blue'], ['blue'], ['red'], ['blue']]}, {'current': ['blue'], 'past': []}, {'current': ['blue'], 'past': [['blue']]}, {'current': ['red'], 'past': [['blue'], ['blue']]}, {'current': ['blue'], 'past': [['blue'], ['blue'], ['red']]}, {'current': ['blue'], 'past': [['blue'], ['blue'], ['red'], ['blue']]}, {'current': ['blue'], 'past': []}, {'current': ['blue'], 'past': [['blue']]}, {'current': ['blue'], 'past': [['blue'], ['blue']]}, {'current': ['red'], 'past': [['blue'], ['blue'], ['blue']]}, {'current': ['red'], 'past': [['blue'], ['blue'], ['blue'], ['red']]}, {'current': ['blue'], 'past': []}, {'current': ['red'], 'past': [['blue']]}, {'current': ['red'], 'past': [['blue'], ['red']]}, {'current': ['blue'], 'past': [['blue'], ['red'], ['red']]}, {'current': ['red'], 'past': [['blue'], ['red'], ['red'], ['blue']]}]}}, 'FADE_IN_ANIMATION_DURATION': 1000, 'BALL_MOVE_DURATION': 200, 'WAIT_AFTER_BOX_OPENING_TO_DRAW_BALLS': 500, 'UNIQUE_PT_TRIALS_N': 2, 'PT_TRIALS_N': 10, 'PT_TRIALS_PER_BLOCK': 10, 'PT_BLOCKS': 1, 'TEST_TRIALS_N': 40, 'TEST_TRIALS_PER_BLOCK': 40, 'TEST_BLOCKS': 1}","{'SHOW_TASK': True, 'TASK_ORDER_INDEX': 8, 'DATA': [{'id': 'shipley_abstraction_1', 'html': '<span>1</span><span>2</span><span>3</span><span>4</span><span>5</span><span>{INPUT}</span>', 'correct': ['6']}, {'id': 'shipley_abstraction_2', 'html': '<span>white   black</span><span>short   long</span><span>down   {INPUT} {INPUT}</span>', 'correct': ['u', 'p']}, {'id': 'shipley_abstraction_3', 'html': '<span>AB</span><span>BC</span><span>CD</span><span>D{INPUT}</span>', 'correct': ['E']}, {'id': 'shipley_abstraction_4', 'html': '<span>10</span><span>1</span><span>9</span><span>2</span><span>8</span><span>{INPUT}</span>', 'correct': ['3']}, {'id': 'shipley_abstraction_5', 'html': '<span>A</span><span>Z</span><span>B</span><span>Y</span><span>C</span><span>X</span><span>D</span><span>{INPUT}</span>', 'correct': ['W']}, {'id': 'shipley_abstraction_6', 'html': '<span>oh   ho</span><span>rat   tar</span><span>mood   {INPUT} {INPUT} {INPUT} {INPUT}</span>', 'correct': ['d', 'o', 'o', 'm']}, {'id': 'shipley_abstraction_7', 'html': '<span>escape</span><span>scape</span><span>cape</span><span>{INPUT} {INPUT} {INPUT}</span>', 'correct': ['a', 'p', 'e']}, {'id': 'shipley_abstraction_8', 'html': '<span>mist   is</span><span>wasp   as</span><span>pint   in</span><span>tone   {INPUT} {INPUT}</span>', 'correct': ['o', 'n']}, {'id': 'shipley_abstraction_9', 'html': '<span>NE/SW</span><span>SE/NW</span><span>E/W</span><span>N/{INPUT}</span>', 'correct': ['S']}, {'id': 'shipley_abstraction_10', 'html': '<span>12321</span><span>23432</span><span>34543</span><span>4 5 6 {INPUT} {INPUT}</span>', 'correct': ['5', '4']}, {'id': 'shipley_abstraction_11', 'html': '<span>knit   in</span><span>spud   up</span><span>both   to</span><span>stay   {INPUT} {INPUT}</span>', 'correct': ['a', 't']}, {'id': 'shipley_abstraction_12', 'html': '<span>57326</span><span>73265</span><span>32657</span><span>26573</span><span>{INPUT} {INPUT} {INPUT} {INPUT} {INPUT}</span>', 'correct': ['6', '5', '7', '3', '2']}, {'id': 'shipley_abstraction_13', 'html': '<span>Scotland</span><span>landscape</span><span>scapegoat</span><span>{INPUT} {INPUT} {INPUT} {INPUT} ee</span>', 'correct': ['g', 'o', 'a', 't']}, {'id': 'shipley_abstraction_14', 'html': '<span>3   7</span><span>5   11</span><span>2   {INPUT}</span>', 'correct': ['5']}, {'id': 'shipley_abstraction_15', 'html': '<span>tam   tan</span><span>rib   rid</span><span>rat   raw</span><span>hip   {INPUT} {INPUT} {INPUT}</span>', 'correct': ['h', 'i', 't']}, {'id': 'shipley_abstraction_16', 'html': '<span>G   V</span><span>J   T</span><span>M   R</span><span>{INPUT}   {INPUT}</span>', 'correct': ['P', 'P']}, {'id': 'shipley_abstraction_17', 'html': '<span>surgeon   1234567</span><span>snore   17635</span><span>rogue   {INPUT} {INPUT} {INPUT} {INPUT} {INPUT}</span>', 'correct': ['3', '6', '4', '2', '5']}, {'id': 'shipley_abstraction_18', 'html': '<span>4   11</span><span>7   20</span><span>3   {INPUT}</span>', 'correct': ['8']}, {'id': 'shipley_abstraction_19', 'html': '<span>two   w</span><span>four    r</span><span>one   o</span><span>three   {INPUT}</span>', 'correct': ['r']}, {'id': 'shipley_abstraction_20', 'html': '<span>thicken   10</span><span>founder   4</span><span>nectarine   {INPUT}</span>', 'correct': ['9']}, {'id': 'shipley_abstraction_21', 'html': '<span>3124</span><span>82</span><span>73</span><span>154</span><span>46</span><span>13{INPUT}</span>', 'correct': ['6']}, {'id': 'shipley_abstraction_22', 'html': '<span>K   W</span><span>M   S</span><span>P   P</span><span>T   N</span><span>{INPUT}   {INPUT}</span>', 'correct': ['Y', 'M']}, {'id': 'shipley_abstraction_23', 'html': '<span>pole-post-mail</span><span>carton-box-fight</span><span>film-picture-depict</span><span>money-{INPUT} {INPUT} {INPUT} {INPUT} {INPUT} {INPUT}-alter</span>', 'correct': ['c', 'h', 'a', 'n', 'g', 'e']}, {'id': 'shipley_abstraction_24', 'html': '<span>9   6</span><span>12   7</span><span>3   {INPUT}</span>', 'correct': ['4']}, {'id': 'shipley_abstraction_25', 'html': '<span>trauma   tuna</span><span>flight   fit</span><span>wife   {INPUT} a {INPUT} {INPUT}</span><span>glossy   gravity</span>', 'correct': ['w', 'g', 'e']}]}","{'SHOW_TASK': True, 'SHORT_VERSION': False, 'TASK_ORDER_INDEX': 9, 'USE_ANCHOR_VERSION': True, 'TASK_VERSION': 'A', 'TRIAL_CHOICE_TYPES': ['conflict', 'harmony'], 'SMALL_LOTTERY_GOLD_COIN_PROPS': [0.1, 0.2, 0.3], 'LARGE_LOTTERY_GOLD_COIN_PROP_RANGE_DIFF': [0.01, 0.02, 0.03, 0.04, 0.05, 0.06, 0.07, 0.08], 'DENOMINATOR_DISPLAY_TYPES': {'task_version_A': [{'small': 'text', 'large': 'text'}, {'small': 'array', 'large': 'array'}, {'small': 'text', 'large': 'array'}, {'small': 'array', 'large': 'text'}], 'task_version_B': [{'small': 'both', 'large': 'both'}]}, 'LOTTERY_TOTAL_COINS': {'small': 10, 'large': 400}, 'TRIAL_TIME_LIMIT': 5000, 'GOLD_COINS_COUNTER': 0, 'ANCHOR_FORM_DATA': {'task_version_A': {'left_lottery_types': ['small', 'large', 'large', 'large', 'small', 'small', 'large', 'small', 'small', 'large', 'small', 'large', 'small', 'large', 'large', 'small', 'large', 'large', 'small', 'large', 'small', 'small', 'large', 'small', 'large', 'small', 'large', 'large', 'small', 'small', 'small', 'small', 'small', 'small', 'small', 'large', 'small', 'large', 'large', 'small', 'large', 'small', 'small', 'large', 'large', 'large', 'large', 'large'], 'denominator_display_types': {'conflict': [{'small': 'text', 'large': 'text'}, {'small': 'text', 'large': 'array'}, {'small': 'array', 'large': 'array'}, {'small': 'array', 'large': 'array'}, {'small': 'text', 'large': 'array'}, {'small': 'array', 'large': 'array'}, {'small': 'array', 'large': 'text'}, {'small': 'array', 'large': 'text'}, {'small': 'array', 'large': 'array'}, {'small': 'array', 'large': 'array'}, {'small': 'text', 'large': 'array'}, {'small': 'array', 'large': 'text'}, {'small': 'array', 'large': 'text'}, {'small': 'text', 'large': 'array'}, {'small': 'array', 'large': 'array'}, {'small': 'text', 'large': 'text'}, {'small': 'text', 'large': 'text'}, {'small': 'text', 'large': 'text'}, {'small': 'text', 'large': 'array'}, {'small': 'text', 'large': 'text'}, {'small': 'array', 'large': 'text'}, {'small': 'array', 'large': 'text'}, {'small': 'text', 'large': 'array'}, {'small': 'text', 'large': 'text'}], 'harmony': [{'small': 'text', 'large': 'text'}, {'small': 'array', 'large': 'text'}, {'small': 'text', 'large': 'text'}, {'small': 'array', 'large': 'text'}, {'small': 'array', 'large': 'text'}, {'small': 'array', 'large': 'text'}, {'small': 'array', 'large': 'array'}, {'small': 'array', 'large': 'array'}, {'small': 'text', 'large': 'text'}, {'small': 'text', 'large': 'array'}, {'small': 'text', 'large': 'array'}, {'small': 'text', 'large': 'text'}, {'small': 'array', 'large': 'array'}, {'small': 'text', 'large': 'array'}, {'small': 'array', 'large': 'array'}, {'small': 'array', 'large': 'text'}, {'small': 'array', 'large': 'array'}, {'small': 'text', 'large': 'text'}, {'small': 'text', 'large': 'array'}, {'small': 'text', 'large': 'array'}, {'small': 'array', 'large': 'text'}, {'small': 'text', 'large': 'text'}, {'small': 'array', 'large': 'array'}, {'small': 'text', 'large': 'array'}]}, 'left_lottery_gold_prop': [0.2, 0.29, 0.27, 0.28, 0.2, 0.3, 0.07, 0.3, 0.1, 0.36, 0.1, 0.28, 0.1, 0.14, 0.18, 0.2, 0.26, 0.25, 0.2, 0.13, 0.2, 0.3, 0.18, 0.2, 0.12, 0.1, 0.25, 0.23, 0.2, 0.3, 0.2, 0.3, 0.3, 0.2, 0.1, 0.16, 0.1, 0.31, 0.27, 0.1, 0.19, 0.1, 0.3, 0.26, 0.05, 0.34, 0.06, 0.24], 'right_lottery_gold_prop': [0.22, 0.3, 0.2, 0.2, 0.13, 0.37, 0.1, 0.24, 0.03, 0.3, 0.09, 0.3, 0.15, 0.1, 0.1, 0.15, 0.2, 0.3, 0.21, 0.1, 0.12, 0.38, 0.2, 0.14, 0.1, 0.17, 0.2, 0.3, 0.23, 0.32, 0.17, 0.22, 0.35, 0.16, 0.02, 0.1, 0.11, 0.3, 0.3, 0.04, 0.2, 0.08, 0.33, 0.3, 0.1, 0.3, 0.1, 0.2], 'left_lottery_total_coins': [10, 400, 400, 400, 10, 10, 400, 10, 10, 400, 10, 400, 10, 400, 400, 10, 400, 400, 10, 400, 10, 10, 400, 10, 400, 10, 400, 400, 10, 10, 10, 10, 10, 10, 10, 400, 10, 400, 400, 10, 400, 10, 10, 400, 400, 400, 400, 400], 'right_lottery_total_coins': [400, 10, 10, 10, 400, 400, 10, 400, 400, 10, 400, 10, 400, 10, 10, 400, 10, 10, 400, 10, 400, 400, 10, 400, 10, 400, 10, 10, 400, 400, 400, 400, 400, 400, 400, 10, 400, 10, 10, 400, 10, 400, 400, 10, 10, 10, 10, 10]}, 'task_version_B': {'left_lottery_types': ['small', 'small', 'large', 'large', 'small', 'small', 'large', 'small', 'small', 'large', 'large', 'small', 'large', 'small', 'large', 'large', 'large', 'small', 'large', 'small', 'small', 'large', 'large', 'small', 'small', 'large', 'large', 'small', 'small', 'large', 'large', 'small', 'small', 'large', 'small', 'large', 'small', 'large', 'small', 'large', 'small', 'small', 'small', 'large', 'large', 'large', 'small', 'large'], 'denominator_display_types': {'conflict': [{'small': 'both', 'large': 'both'}, {'small': 'both', 'large': 'both'}, {'small': 'both', 'large': 'both'}, {'small': 'both', 'large': 'both'}, {'small': 'both', 'large': 'both'}, {'small': 'both', 'large': 'both'}, {'small': 'both', 'large': 'both'}, {'small': 'both', 'large': 'both'}, {'small': 'both', 'large': 'both'}, {'small': 'both', 'large': 'both'}, {'small': 'both', 'large': 'both'}, {'small': 'both', 'large': 'both'}, {'small': 'both', 'large': 'both'}, {'small': 'both', 'large': 'both'}, {'small': 'both', 'large': 'both'}, {'small': 'both', 'large': 'both'}, {'small': 'both', 'large': 'both'}, {'small': 'both', 'large': 'both'}, {'small': 'both', 'large': 'both'}, {'small': 'both', 'large': 'both'}, {'small': 'both', 'large': 'both'}, {'small': 'both', 'large': 'both'}, {'small': 'both', 'large': 'both'}, {'small': 'both', 'large': 'both'}], 'harmony': [{'small': 'both', 'large': 'both'}, {'small': 'both', 'large': 'both'}, {'small': 'both', 'large': 'both'}, {'small': 'both', 'large': 'both'}, {'small': 'both', 'large': 'both'}, {'small': 'both', 'large': 'both'}, {'small': 'both', 'large': 'both'}, {'small': 'both', 'large': 'both'}, {'small': 'both', 'large': 'both'}, {'small': 'both', 'large': 'both'}, {'small': 'both', 'large': 'both'}, {'small': 'both', 'large': 'both'}, {'small': 'both', 'large': 'both'}, {'small': 'both', 'large': 'both'}, {'small': 'both', 'large': 'both'}, {'small': 'both', 'large': 'both'}, {'small': 'both', 'large': 'both'}, {'small': 'both', 'large': 'both'}, {'small': 'both', 'large': 'both'}, {'small': 'both', 'large': 'both'}, {'small': 'both', 'large': 'both'}, {'small': 'both', 'large': 'both'}, {'small': 'both', 'large': 'both'}, {'small': 'both', 'large': 'both'}]}, 'left_lottery_gold_prop': [0.2, 0.3, 0.24, 0.14, 0.1, 0.2, 0.35, 0.1, 0.3, 0.07, 0.09, 0.3, 0.18, 0.1, 0.34, 0.22, 0.32, 0.3, 0.27, 0.1, 0.3, 0.08, 0.15, 0.1, 0.1, 0.25, 0.29, 0.1, 0.2, 0.18, 0.16, 0.3, 0.2, 0.33, 0.3, 0.38, 0.2, 0.17, 0.2, 0.26, 0.2, 0.3, 0.2, 0.02, 0.04, 0.12, 0.1, 0.27], 'right_lottery_gold_prop': [0.13, 0.25, 0.3, 0.1, 0.03, 0.23, 0.3, 0.05, 0.31, 0.1, 0.1, 0.22, 0.2, 0.16, 0.3, 0.2, 0.3, 0.26, 0.3, 0.15, 0.23, 0.1, 0.2, 0.11, 0.13, 0.2, 0.3, 0.12, 0.14, 0.1, 0.2, 0.37, 0.19, 0.3, 0.36, 0.3, 0.24, 0.1, 0.21, 0.2, 0.28, 0.28, 0.17, 0.1, 0.1, 0.2, 0.06, 0.2], 'left_lottery_total_coins': [10, 10, 400, 400, 10, 10, 400, 10, 10, 400, 400, 10, 400, 10, 400, 400, 400, 10, 400, 10, 10, 400, 400, 10, 10, 400, 400, 10, 10, 400, 400, 10, 10, 400, 10, 400, 10, 400, 10, 400, 10, 10, 10, 400, 400, 400, 10, 400], 'right_lottery_total_coins': [400, 400, 10, 10, 400, 400, 10, 400, 400, 10, 10, 400, 10, 400, 10, 10, 10, 400, 10, 400, 400, 10, 10, 400, 400, 10, 10, 400, 400, 10, 10, 400, 400, 10, 400, 10, 400, 10, 400, 10, 400, 400, 400, 10, 10, 10, 400, 10]}}, 'PT_TRIALS_N': 8, 'PT_TRIALS_PER_BLOCK': 8, 'PT_BLOCKS': 1, 'TEST_TRIALS_N': 48, 'TEST_TRIALS_PER_BLOCK': 48, 'TEST_BLOCKS': 1}","{'SHOW_TASK': True, 'SHORT_VERSION': False, 'TASK_ORDER_INDEX': 10, 'USE_ANCHOR_VERSION': False, 'TASK_VERSION': 'B', 'TRIAL_CHOICE_TYPES': ['conflict', 'harmony'], 'SMALL_LOTTERY_GOLD_COIN_PROPS': [0.1, 0.2, 0.3], 'LARGE_LOTTERY_GOLD_COIN_PROP_RANGE_DIFF': [0.01, 0.02, 0.03, 0.04, 0.05, 0.06, 0.07, 0.08], 'DENOMINATOR_DISPLAY_TYPES': {'task_version_A': [{'small': 'text', 'large': 'text'}, {'small': 'array', 'large': 'array'}, {'small': 'text', 'large': 'array'}, {'small': 'array', 'large': 'text'}], 'task_version_B': [{'small': 'both', 'large': 'both'}]}, 'LOTTERY_TOTAL_COINS': {'small': 10, 'large': 400}, 'TRIAL_TIME_LIMIT': 5000, 'GOLD_COINS_COUNTER': 0, 'ANCHOR_FORM_DATA': {'task_version_A': {'left_lottery_types': ['small', 'large', 'large', 'large', 'small', 'small', 'large', 'small', 'small', 'large', 'small', 'large', 'small', 'large', 'large', 'small', 'large', 'large', 'small', 'large', 'small', 'small', 'large', 'small', 'large', 'small', 'large', 'large', 'small', 'small', 'small', 'small', 'small', 'small', 'small', 'large', 'small', 'large', 'large', 'small', 'large', 'small', 'small', 'large', 'large', 'large', 'large', 'large'], 'denominator_display_types': {'conflict': [{'small': 'text', 'large': 'text'}, {'small': 'text', 'large': 'array'}, {'small': 'array', 'large': 'array'}, {'small': 'array', 'large': 'array'}, {'small': 'text', 'large': 'array'}, {'small': 'array', 'large': 'array'}, {'small': 'array', 'large': 'text'}, {'small': 'array', 'large': 'text'}, {'small': 'array', 'large': 'array'}, {'small': 'array', 'large': 'array'}, {'small': 'text', 'large': 'array'}, {'small': 'array', 'large': 'text'}, {'small': 'array', 'large': 'text'}, {'small': 'text', 'large': 'array'}, {'small': 'array', 'large': 'array'}, {'small': 'text', 'large': 'text'}, {'small': 'text', 'large': 'text'}, {'small': 'text', 'large': 'text'}, {'small': 'text', 'large': 'array'}, {'small': 'text', 'large': 'text'}, {'small': 'array', 'large': 'text'}, {'small': 'array', 'large': 'text'}, {'small': 'text', 'large': 'array'}, {'small': 'text', 'large': 'text'}], 'harmony': [{'small': 'text', 'large': 'text'}, {'small': 'array', 'large': 'text'}, {'small': 'text', 'large': 'text'}, {'small': 'array', 'large': 'text'}, {'small': 'array', 'large': 'text'}, {'small': 'array', 'large': 'text'}, {'small': 'array', 'large': 'array'}, {'small': 'array', 'large': 'array'}, {'small': 'text', 'large': 'text'}, {'small': 'text', 'large': 'array'}, {'small': 'text', 'large': 'array'}, {'small': 'text', 'large': 'text'}, {'small': 'array', 'large': 'array'}, {'small': 'text', 'large': 'array'}, {'small': 'array', 'large': 'array'}, {'small': 'array', 'large': 'text'}, {'small': 'array', 'large': 'array'}, {'small': 'text', 'large': 'text'}, {'small': 'text', 'large': 'array'}, {'small': 'text', 'large': 'array'}, {'small': 'array', 'large': 'text'}, {'small': 'text', 'large': 'text'}, {'small': 'array', 'large': 'array'}, {'small': 'text', 'large': 'array'}]}, 'left_lottery_gold_prop': [0.2, 0.29, 0.27, 0.28, 0.2, 0.3, 0.07, 0.3, 0.1, 0.36, 0.1, 0.28, 0.1, 0.14, 0.18, 0.2, 0.26, 0.25, 0.2, 0.13, 0.2, 0.3, 0.18, 0.2, 0.12, 0.1, 0.25, 0.23, 0.2, 0.3, 0.2, 0.3, 0.3, 0.2, 0.1, 0.16, 0.1, 0.31, 0.27, 0.1, 0.19, 0.1, 0.3, 0.26, 0.05, 0.34, 0.06, 0.24], 'right_lottery_gold_prop': [0.22, 0.3, 0.2, 0.2, 0.13, 0.37, 0.1, 0.24, 0.03, 0.3, 0.09, 0.3, 0.15, 0.1, 0.1, 0.15, 0.2, 0.3, 0.21, 0.1, 0.12, 0.38, 0.2, 0.14, 0.1, 0.17, 0.2, 0.3, 0.23, 0.32, 0.17, 0.22, 0.35, 0.16, 0.02, 0.1, 0.11, 0.3, 0.3, 0.04, 0.2, 0.08, 0.33, 0.3, 0.1, 0.3, 0.1, 0.2], 'left_lottery_total_coins': [10, 400, 400, 400, 10, 10, 400, 10, 10, 400, 10, 400, 10, 400, 400, 10, 400, 400, 10, 400, 10, 10, 400, 10, 400, 10, 400, 400, 10, 10, 10, 10, 10, 10, 10, 400, 10, 400, 400, 10, 400, 10, 10, 400, 400, 400, 400, 400], 'right_lottery_total_coins': [400, 10, 10, 10, 400, 400, 10, 400, 400, 10, 400, 10, 400, 10, 10, 400, 10, 10, 400, 10, 400, 400, 10, 400, 10, 400, 10, 10, 400, 400, 400, 400, 400, 400, 400, 10, 400, 10, 10, 400, 10, 400, 400, 10, 10, 10, 10, 10]}, 'task_version_B': {'left_lottery_types': ['small', 'small', 'large', 'large', 'small', 'small', 'large', 'small', 'small', 'large', 'large', 'small', 'large', 'small', 'large', 'large', 'large', 'small', 'large', 'small', 'small', 'large', 'large', 'small', 'small', 'large', 'large', 'small', 'small', 'large', 'large', 'small', 'small', 'large', 'small', 'large', 'small', 'large', 'small', 'large', 'small', 'small', 'small', 'large', 'large', 'large', 'small', 'large'], 'denominator_display_types': {'conflict': [{'small': 'both', 'large': 'both'}, {'small': 'both', 'large': 'both'}, {'small': 'both', 'large': 'both'}, {'small': 'both', 'large': 'both'}, {'small': 'both', 'large': 'both'}, {'small': 'both', 'large': 'both'}, {'small': 'both', 'large': 'both'}, {'small': 'both', 'large': 'both'}, {'small': 'both', 'large': 'both'}, {'small': 'both', 'large': 'both'}, {'small': 'both', 'large': 'both'}, {'small': 'both', 'large': 'both'}, {'small': 'both', 'large': 'both'}, {'small': 'both', 'large': 'both'}, {'small': 'both', 'large': 'both'}, {'small': 'both', 'large': 'both'}, {'small': 'both', 'large': 'both'}, {'small': 'both', 'large': 'both'}, {'small': 'both', 'large': 'both'}, {'small': 'both', 'large': 'both'}, {'small': 'both', 'large': 'both'}, {'small': 'both', 'large': 'both'}, {'small': 'both', 'large': 'both'}, {'small': 'both', 'large': 'both'}], 'harmony': [{'small': 'both', 'large': 'both'}, {'small': 'both', 'large': 'both'}, {'small': 'both', 'large': 'both'}, {'small': 'both', 'large': 'both'}, {'small': 'both', 'large': 'both'}, {'small': 'both', 'large': 'both'}, {'small': 'both', 'large': 'both'}, {'small': 'both', 'large': 'both'}, {'small': 'both', 'large': 'both'}, {'small': 'both', 'large': 'both'}, {'small': 'both', 'large': 'both'}, {'small': 'both', 'large': 'both'}, {'small': 'both', 'large': 'both'}, {'small': 'both', 'large': 'both'}, {'small': 'both', 'large': 'both'}, {'small': 'both', 'large': 'both'}, {'small': 'both', 'large': 