trial_type,trial_index,time_elapsed,internal_node_id,subject_id,form,wave,session_id,session_restart_id,trial_name,experiment_parameters,task_denominator_neglect_version_A,task_denominator_neglect_version_B,data_checkpoint,data_checkpoint_ind,view_history,rt,custom_timer_ended_trial,interval_id,stimulus,response,pt_trial,block,trial,task_version,choice_type,left_lottery_display_type,right_lottery_display_type,left_lottery_type,right_lottery_type,left_lottery_gold_prop,right_lottery_gold_prop,left_lottery_total_coins,right_lottery_total_coins,left_lottery_gold_coins,right_lottery_gold_coins,left_lottery_silver_coins,right_lottery_silver_coins,selected_lottery,coin_drawn
call-function,0,3,0.0-0.0,VKnu0IjqtwkIeIw2M08Q,all,,L0RcsSDQctmciE9AckgAteJIbn,UIG5086UvrNYN3tL7cNflMcX09,,,,,,,,,,,,,,,,,,,,,,,,,,,,,,,
call-function,1,5,0.0-1.0,VKnu0IjqtwkIeIw2M08Q,all,,L0RcsSDQctmciE9AckgAteJIbn,UIG5086UvrNYN3tL7cNflMcX09,session_parameters,"{'INSTRUCTIONS_ONLY': False, 'IGNORE_VALIDATION': False, 'SKIP_INTRO_TRIALS': True, 'TEST_EXCLUSION_CRITERIA': False, 'SIMULATE': False, 'SIMULATE_TRIAL_DURATION': 250}","{'SHOW_TASK': True, 'SHORT_VERSION': True, 'TASK_ORDER_INDEX': 6, 'USE_ANCHOR_VERSION': False, 'TASK_VERSION': 'A', 'TRIAL_CHOICE_TYPES': ['conflict', 'harmony'], 'SMALL_LOTTERY_GOLD_COIN_PROPS': [0.1, 0.2, 0.3], 'LARGE_LOTTERY_GOLD_COIN_PROP_RANGE_DIFF': [0.01, 0.02, 0.03, 0.04, 0.05, 0.06, 0.07, 0.08], 'DENOMINATOR_DISPLAY_TYPES': {'task_version_A': [{'small': 'text', 'large': 'text'}, {'small': 'array', 'large': 'array'}, {'small': 'text', 'large': 'array'}, {'small': 'array', 'large': 'text'}], 'task_version_B': [{'small': 'both', 'large': 'both'}]}, 'LOTTERY_TOTAL_COINS': {'small': 10, 'large': 400}, 'TRIAL_TIME_LIMIT': 5000, 'GOLD_COINS_COUNTER': 0, 'ANCHOR_FORM_DATA': {'task_version_A': {'left_lottery_types': ['small', 'large', 'large', 'large', 'small', 'small', 'large', 'small', 'small', 'large', 'small', 'large', 'small', 'large', 'large', 'small', 'large', 'large', 'small', 'large', 'small', 'small', 'large', 'small', 'large', 'small', 'large', 'large', 'small', 'small', 'small', 'small', 'small', 'small', 'small', 'large', 'small', 'large', 'large', 'small', 'large', 'small', 'small', 'large', 'large', 'large', 'large', 'large'], 'denominator_display_types': {'conflict': [{'small': 'text', 'large': 'text'}, {'small': 'text', 'large': 'array'}, {'small': 'array', 'large': 'array'}, {'small': 'array', 'large': 'array'}, {'small': 'text', 'large': 'array'}, {'small': 'array', 'large': 'array'}, {'small': 'array', 'large': 'text'}, {'small': 'array', 'large': 'text'}, {'small': 'array', 'large': 'array'}, {'small': 'array', 'large': 'array'}, {'small': 'text', 'large': 'array'}, {'small': 'array', 'large': 'text'}, {'small': 'array', 'large': 'text'}, {'small': 'text', 'large': 'array'}, {'small': 'array', 'large': 'array'}, {'small': 'text', 'large': 'text'}, {'small': 'text', 'large': 'text'}, {'small': 'text', 'large': 'text'}, {'small': 'text', 'large': 'array'}, {'small': 'text', 'large': 'text'}, {'small': 'array', 'large': 'text'}, {'small': 'array', 'large': 'text'}, {'small': 'text', 'large': 'array'}, {'small': 'text', 'large': 'text'}], 'harmony': [{'small': 'text', 'large': 'text'}, {'small': 'array', 'large': 'text'}, {'small': 'text', 'large': 'text'}, {'small': 'array', 'large': 'text'}, {'small': 'array', 'large': 'text'}, {'small': 'array', 'large': 'text'}, {'small': 'array', 'large': 'array'}, {'small': 'array', 'large': 'array'}, {'small': 'text', 'large': 'text'}, {'small': 'text', 'large': 'array'}, {'small': 'text', 'large': 'array'}, {'small': 'text', 'large': 'text'}, {'small': 'array', 'large': 'array'}, {'small': 'text', 'large': 'array'}, {'small': 'array', 'large': 'array'}, {'small': 'array', 'large': 'text'}, {'small': 'array', 'large': 'array'}, {'small': 'text', 'large': 'text'}, {'small': 'text', 'large': 'array'}, {'small': 'text', 'large': 'array'}, {'small': 'array', 'large': 'text'}, {'small': 'text', 'large': 'text'}, {'small': 'array', 'large': 'array'}, {'small': 'text', 'large': 'array'}]}, 'left_lottery_gold_prop': [0.2, 0.29, 0.27, 0.28, 0.2, 0.3, 0.07, 0.3, 0.1, 0.36, 0.1, 0.28, 0.1, 0.14, 0.18, 0.2, 0.26, 0.25, 0.2, 0.13, 0.2, 0.3, 0.18, 0.2, 0.12, 0.1, 0.25, 0.23, 0.2, 0.3, 0.2, 0.3, 0.3, 0.2, 0.1, 0.16, 0.1, 0.31, 0.27, 0.1, 0.19, 0.1, 0.3, 0.26, 0.05, 0.34, 0.06, 0.24], 'right_lottery_gold_prop': [0.22, 0.3, 0.2, 0.2, 0.13, 0.37, 0.1, 0.24, 0.03, 0.3, 0.09, 0.3, 0.15, 0.1, 0.1, 0.15, 0.2, 0.3, 0.21, 0.1, 0.12, 0.38, 0.2, 0.14, 0.1, 0.17, 0.2, 0.3, 0.23, 0.32, 0.17, 0.22, 0.35, 0.16, 0.02, 0.1, 0.11, 0.3, 0.3, 0.04, 0.2, 0.08, 0.33, 0.3, 0.1, 0.3, 0.1, 0.2], 'left_lottery_total_coins': [10, 400, 400, 400, 10, 10, 400, 10, 10, 400, 10, 400, 10, 400, 400, 10, 400, 400, 10, 400, 10, 10, 400, 10, 400, 10, 400, 400, 10, 10, 10, 10, 10, 10, 10, 400, 10, 400, 400, 10, 400, 10, 10, 400, 400, 400, 400, 400], 'right_lottery_total_coins': [400, 10, 10, 10, 400, 400, 10, 400, 400, 10, 400, 10, 400, 10, 10, 400, 10, 10, 400, 10, 400, 400, 10, 400, 10, 400, 10, 10, 400, 400, 400, 400, 400, 400, 400, 10, 400, 10, 10, 400, 10, 400, 400, 10, 10, 10, 10, 10]}, 'task_version_B': {'left_lottery_types': ['small', 'small', 'large', 'large', 'small', 'small', 'large', 'small', 'small', 'large', 'large', 'small', 'large', 'small', 'large', 'large', 'large', 'small', 'large', 'small', 'small', 'large', 'large', 'small', 'small', 'large', 'large', 'small', 'small', 'large', 'large', 'small', 'small', 'large', 'small', 'large', 'small', 'large', 'small', 'large', 'small', 'small', 'small', 'large', 'large', 'large', 'small', 'large'], 'denominator_display_types': {'conflict': [{'small': 'both', 'large': 'both'}, {'small': 'both', 'large': 'both'}, {'small': 'both', 'large': 'both'}, {'small': 'both', 'large': 'both'}, {'small': 'both', 'large': 'both'}, {'small': 'both', 'large': 'both'}, {'small': 'both', 'large': 'both'}, {'small': 'both', 'large': 'both'}, {'small': 'both', 'large': 'both'}, {'small': 'both', 'large': 'both'}, {'small': 'both', 'large': 'both'}, {'small': 'both', 'large': 'both'}, {'small': 'both', 'large': 'both'}, {'small': 'both', 'large': 'both'}, {'small': 'both', 'large': 'both'}, {'small': 'both', 'large': 'both'}, {'small': 'both', 'large': 'both'}, {'small': 'both', 'large': 'both'}, {'small': 'both', 'large': 'both'}, {'small': 'both', 'large': 'both'}, {'small': 'both', 'large': 'both'}, {'small': 'both', 'large': 'both'}, {'small': 'both', 'large': 'both'}, {'small': 'both', 'large': 'both'}], 'harmony': [{'small': 'both', 'large': 'both'}, {'small': 'both', 'large': 'both'}, {'small': 'both', 'large': 'both'}, {'small': 'both', 'large': 'both'}, {'small': 'both', 'large': 'both'}, {'small': 'both', 'large': 'both'}, {'small': 'both', 'large': 'both'}, {'small': 'both', 'large': 'both'}, {'small': 'both', 'large': 'both'}, {'small': 'both', 'large': 'both'}, {'small': 'both', 'large': 'both'}, {'small': 'both', 'large': 'both'}, {'small': 'both', 'large': 'both'}, {'small': 'both', 'large': 'both'}, {'small': 'both', 'large': 'both'}, {'small': 'both', 'large': 'both'}, {'small': 'both', 'large': 'both'}, {'small': 'both', 'large': 'both'}, {'small': 'both', 'large': 'both'}, {'small': 'both', 'large': 'both'}, {'small': 'both', 'large': 'both'}, {'small': 'both', 'large': 'both'}, {'small': 'both', 'large': 'both'}, {'small': 'both', 'large': 'both'}]}, 'left_lottery_gold_prop': [0.2, 0.3, 0.24, 0.14, 0.1, 0.2, 0.35, 0.1, 0.3, 0.07, 0.09, 0.3, 0.18, 0.1, 0.34, 0.22, 0.32, 0.3, 0.27, 0.1, 0.3, 0.08, 0.15, 0.1, 0.1, 0.25, 0.29, 0.1, 0.2, 0.18, 0.16, 0.3, 0.2, 0.33, 0.3, 0.38, 0.2, 0.17, 0.2, 0.26, 0.2, 0.3, 0.2, 0.02, 0.04, 0.12, 0.1, 0.27], 'right_lottery_gold_prop': [0.13, 0.25, 0.3, 0.1, 0.03, 0.23, 0.3, 0.05, 0.31, 0.1, 0.1, 0.22, 0.2, 0.16, 0.3, 0.2, 0.3, 0.26, 0.3, 0.15, 0.23, 0.1, 0.2, 0.11, 0.13, 0.2, 0.3, 0.12, 0.14, 0.1, 0.2, 0.37, 0.19, 0.3, 0.36, 0.3, 0.24, 0.1, 0.21, 0.2, 0.28, 0.28, 0.17, 0.1, 0.1, 0.2, 0.06, 0.2], 'left_lottery_total_coins': [10, 10, 400, 400, 10, 10, 400, 10, 10, 400, 400, 10, 400, 10, 400, 400, 400, 10, 400, 10, 10, 400, 400, 10, 10, 400, 400, 10, 10, 400, 400, 10, 10, 400, 10, 400, 10, 400, 10, 400, 10, 10, 10, 400, 400, 400, 10, 400], 'right_lottery_total_coins': [400, 400, 10, 10, 400, 400, 10, 400, 400, 10, 10, 400, 10, 400, 10, 10, 10, 400, 10, 400, 400, 10, 10, 400, 400, 10, 10, 400, 400, 10, 10, 400, 400, 10, 400, 10, 400, 10, 400, 10, 400, 400, 400, 10, 10, 10, 400, 10]}}, 'PT_TRIALS_N': 8, 'PT_TRIALS_PER_BLOCK': 8, 'PT_BLOCKS': 1, 'TEST_TRIALS_N': 8, 'TEST_TRIALS_PER_BLOCK': 8, 'TEST_BLOCKS': 1}","{'SHOW_TASK': True, 'SHORT_VERSION': True, 'TASK_ORDER_INDEX': 7, 'USE_ANCHOR_VERSION': False, 'TASK_VERSION': 'B', 'TRIAL_CHOICE_TYPES': ['conflict', 'harmony'], 'SMALL_LOTTERY_GOLD_COIN_PROPS': [0.1, 0.2, 0.3], 'LARGE_LOTTERY_GOLD_COIN_PROP_RANGE_DIFF': [0.01, 0.02, 0.03, 0.04, 0.05, 0.06, 0.07, 0.08], 'DENOMINATOR_DISPLAY_TYPES': {'task_version_A': [{'small': 'text', 'large': 'text'}, {'small': 'array', 'large': 'array'}, {'small': 'text', 'large': 'array'}, {'small': 'array', 'large': 'text'}], 'task_version_B': [{'small': 'both', 'large': 'both'}]}, 'LOTTERY_TOTAL_COINS': {'small': 10, 'large': 400}, 'TRIAL_TIME_LIMIT': 5000, 'GOLD_COINS_COUNTER': 0, 'ANCHOR_FORM_DATA': {'task_version_A': {'left_lottery_types': ['small', 'large', 'large', 'large', 'small', 'small', 'large', 'small', 'small', 'large', 'small', 'large', 'small', 'large', 'large', 'small', 'large', 'large', 'small', 'large', 'small', 'small', 'large', 'small', 'large', 'small', 'large', 'large', 'small', 'small', 'small', 'small', 'small', 'small', 'small', 'large', 'small', 'large', 'large', 'small', 'large', 'small', 'small', 'large', 'large', 'large', 'large', 'large'], 'denominator_display_types': {'conflict': [{'small': 'text', 'large': 'text'}, {'small': 'text', 'large': 'array'}, {'small': 'array', 'large': 'array'}, {'small': 'array', 'large': 'array'}, {'small': 'text', 'large': 'array'}, {'small': 'array', 'large': 'array'}, {'small': 'array', 'large': 'text'}, {'small': 'array', 'large': 'text'}, {'small': 'array', 'large': 'array'}, {'small': 'array', 'large': 'array'}, {'small': 'text', 'large': 'array'}, {'small': 'array', 'large': 'text'}, {'small': 'array', 'large': 'text'}, {'small': 'text', 'large': 'array'}, {'small': 'array', 'large': 'array'}, {'small': 'text', 'large': 'text'}, {'small': 'text', 'large': 'text'}, {'small': 'text', 'large': 'text'}, {'small': 'text', 'large': 'array'}, {'small': 'text', 'large': 'text'}, {'small': 'array', 'large': 'text'}, {'small': 'array', 'large': 'text'}, {'small': 'text', 'large': 'array'}, {'small': 'text', 'large': 'text'}], 'harmony': [{'small': 'text', 'large': 'text'}, {'small': 'array', 'large': 'text'}, {'small': 'text', 'large': 'text'}, {'small': 'array', 'large': 'text'}, {'small': 'array', 'large': 'text'}, {'small': 'array', 'large': 'text'}, {'small': 'array', 'large': 'array'}, {'small': 'array', 'large': 'array'}, {'small': 'text', 'large': 'text'}, {'small': 'text', 'large': 'array'}, {'small': 'text', 'large': 'array'}, {'small': 'text', 'large': 'text'}, {'small': 'array', 'large': 'array'}, {'small': 'text', 'large': 'array'}, {'small': 'array', 'large': 'array'}, {'small': 'array', 'large': 'text'}, {'small': 'array', 'large': 'array'}, {'small': 'text', 'large': 'text'}, {'small': 'text', 'large': 'array'}, {'small': 'text', 'large': 'array'}, {'small': 'array', 'large': 'text'}, {'small': 'text', 'large': 'text'}, {'small': 'array', 'large': 'array'}, {'small': 'text', 'large': 'array'}]}, 'left_lottery_gold_prop': [0.2, 0.29, 0.27, 0.28, 0.2, 0.3, 0.07, 0.3, 0.1, 0.36, 0.1, 0.28, 0.1, 0.14, 0.18, 0.2, 0.26, 0.25, 0.2, 0.13, 0.2, 0.3, 0.18, 0.2, 0.12, 0.1, 0.25, 0.23, 0.2, 0.3, 0.2, 0.3, 0.3, 0.2, 0.1, 0.16, 0.1, 0.31, 0.27, 0.1, 0.19, 0.1, 0.3, 0.26, 0.05, 0.34, 0.06, 0.24], 'right_lottery_gold_prop': [0.22, 0.3, 0.2, 0.2, 0.13, 0.37, 0.1, 0.24, 0.03, 0.3, 0.09, 0.3, 0.15, 0.1, 0.1, 0.15, 0.2, 0.3, 0.21, 0.1, 0.12, 0.38, 0.2, 0.14, 0.1, 0.17, 0.2, 0.3, 0.23, 0.32, 0.17, 0.22, 0.35, 0.16, 0.02, 0.1, 0.11, 0.3, 0.3, 0.04, 0.2, 0.08, 0.33, 0.3, 0.1, 0.3, 0.1, 0.2], 'left_lottery_total_coins': [10, 400, 400, 400, 10, 10, 400, 10, 10, 400, 10, 400, 10, 400, 400, 10, 400, 400, 10, 400, 10, 10, 400, 10, 400, 10, 400, 400, 10, 10, 10, 10, 10, 10, 10, 400, 10, 400, 400, 10, 400, 10, 10, 400, 400, 400, 400, 400], 'right_lottery_total_coins': [400, 10, 10, 10, 400, 400, 10, 400, 400, 10, 400, 10, 400, 10, 10, 400, 10, 10, 400, 10, 400, 400, 10, 400, 10, 400, 10, 10, 400, 400, 400, 400, 400, 400, 400, 10, 400, 10, 10, 400, 10, 400, 400, 10, 10, 10, 10, 10]}, 'task_version_B': {'left_lottery_types': ['small', 'small', 'large', 'large', 'small', 'small', 'large', 'small', 'small', 'large', 'large', 'small', 'large', 'small', 'large', 'large', 'large', 'small', 'large', 'small', 'small', 'large', 'large', 'small', 'small', 'large', 'large', 'small', 'small', 'large', 'large', 'small', 'small', 'large', 'small', 'large', 'small', 'large', 'small', 'large', 'small', 'small', 'small', 'large', 'large', 'large', 'small', 'large'], 'denominator_display_types': {'conflict': [{'small': 'both', 'large': 'both'}, {'small': 'both', 'large': 'both'}, {'small': 'both', 'large': 'both'}, {'small': 'both', 'large': 'both'}, {'small': 'both', 'large': 'both'}, {'small': 'both', 'large': 'both'}, {'small': 'both', 'large': 'both'}, {'small': 'both', 'large': 'both'}, {'small': 'both', 'large': 'both'}, {'small': 'both', 'large': 'both'}, {'small': 'both', 'large': 'both'}, {'small': 'both', 'large': 'both'}, {'small': 'both', 'large': 'both'}, {'small': 'both', 'large': 'both'}, {'small': 'both', 'large': 'both'}, {'small': 'both', 'large': 'both'}, {'small': 'both', 'large': 'both'}, {'small': 'both', 'large': 'both'}, {'small': 'both', 'large': 'both'}, {'small': 'both', 'large': 'both'}, {'small': 'both', 'large': 'both'}, {'small': 'both', 'large': 'both'}, {'small': 'both', 'large': 'both'}, {'small': 'both', 'large': 'both'}], 'harmony': [{'small': 'both', 'large': 'both'}, {'small': 'both', 'large': 'both'}, {'small': 'both', 'large': 'both'}, {'small': 'both', 'large': 'both'}, {'small': 'both', 'large': 'both'}, {'small': 'both', 'large': 'both'}, {'small': 'both', 'large': 'both'}, {'small': 'both', 'large': 'both'}, {'small': 'both', 'large': 'both'}, {'small': 'both', 'large': 'both'}, {'small': 'both', 'large': 'both'}, {'small': 'both', 'large': 'both'}, {'small': 'both', 'large': 'both'}, {'small': 'both', 'large': 'both'}, {'small': 'both', 'large': 'both'}, {'small': 'both', 'large': 'both'}, {'small': 'both', 'large': 'both'}, {'small': 'both', 'large': 'both'}, {'small': 'both', 'large': 'both'}, {'small': 'both', 'large': 'both'}, {'small': 'both', 'large': 'both'}, {'small': 'both', 'large': 'both'}, {'small': 'both', 'large': 'both'}, {'small': 'both', 'large': 'both'}]}, 'left_lottery_gold_prop': [0.2, 0.3, 0.24, 0.14, 0.1, 0.2, 0.35, 0.1, 0.3, 0.07, 0.09, 0.3, 0.18, 0.1, 0.34, 0.22, 0.32, 0.3, 0.27, 0.1, 0.3, 0.08, 0.15, 0.1, 0.1, 0.25, 0.29, 0.1, 0.2, 0.18, 0.16, 0.3, 0.2, 0.33, 0.3, 0.38, 0.2, 0.17, 0.2, 0.26, 0.2, 0.3, 0.2, 0.02, 0.04, 0.12, 0.1, 0.27], 'right_lottery_gold_prop': [0.13, 0.25, 0.3, 0.1, 0.03, 0.23, 0.3, 0.05, 0.31, 0.1, 0.1, 0.22, 0.2, 0.16, 0.3, 0.2, 0.3, 0.26, 0.3, 0.15, 0.23, 0.1, 0.2, 0.11, 0.13, 0.2, 0.3, 0.12, 0.14, 0.1, 0.2, 0.37, 0.19, 0.3, 0.36, 0.3, 0.24, 0.1, 0.21, 0.2, 0.28, 0.28, 0.17, 0.1, 0.1, 0.2, 0.06, 0.2], 'left_lottery_total_coins': [10, 10, 400, 400, 10, 10, 400, 10, 10, 400, 400, 10, 400, 10, 400, 400, 400, 10, 400, 10, 10, 400, 400, 10, 10, 400, 400, 10, 10, 400, 400, 10, 10, 400, 10, 400, 10, 400, 10, 400, 10, 10, 10, 400, 400, 400, 10, 400], 'right_lottery_total_coins': [400, 400, 10, 10, 400, 400, 10, 400, 400, 10, 10, 400, 10, 400, 10, 10, 10, 400, 10, 400, 400, 10, 10, 400, 400, 10, 10, 400, 400, 10, 10, 400, 400, 10, 400, 10, 400, 10, 400, 10, 400, 400, 400, 10, 10, 10, 400, 10]}}, 'PT_TRIALS_N': 8, 'PT_TRIALS_PER_BLOCK': 8, 'PT_BLOCKS': 1, 'TEST_TRIALS_N': 8, 'TEST_TRIALS_PER_BLOCK': 8, 'TEST_BLOCKS': 1}",,,,,,,,,,,,,,,,,,,,,,,,,,,
html-keyboard-response,2,6,0.0-2.0,VKnu0IjqtwkIeIw2M08Q,all,,L0RcsSDQctmciE9AckgAteJIbn,UIG5086UvrNYN3tL7cNflMcX09,async_data_save,,,,experiment__save_session_params,0.0,,,,,,,,,,,,,,,,,,,,,,,,,
html-keyboard-response,3,7,0.0-3.0,VKnu0IjqtwkIeIw2M08Q,all,,L0RcsSDQctmciE9AckgAteJIbn,UIG5086UvrNYN3tL7cNflMcX09,async_data_save,,,,experiment__welcome,1.0,,,,,,,,,,,,,,,,,,,,,,,,,
html-keyboard-response,3,7,0.0-3.0,VKnu0IjqtwkIeIw2M08Q,all,,L0RcsSDQctmciE9AckgAteJIbn,UIG5086UvrNYN3tL7cNflMcX09,async_data_save,,,,experiment__welcome,1.0,,,,,,,,,,,,,,,,,,,,,,,,,
html-keyboard-response,4,248,0.0-4.0-0.0-0.0,VKnu0IjqtwkIeIw2M08Q,all,,L0RcsSDQctmciE9AckgAteJIbn,UIG5086UvrNYN3tL7cNflMcX09,,,,,,,,,,,,,,,,,,,,,,,,,,,,,,,
call-function,5,403,0.0-4.0-1.0,VKnu0IjqtwkIeIw2M08Q,all,,L0RcsSDQctmciE9AckgAteJIbn,UIG5086UvrNYN3tL7cNflMcX09,,,,,,,,,,,,,,,,,,,,,,,,,,,,,,,
instructions,6,48856,0.0-4.0-2.0,VKnu0IjqtwkIeIw2M08Q,all,,L0RcsSDQctmciE9AckgAteJIbn,UIG5086UvrNYN3tL7cNflMcX09,dn_general_instructions,,,,,,"[{'page_index': 0, 'viewing_time': 13726}, {'page_index': 1, 'viewing_time': 34724}]",48451.0,False,3.0,,,,,,,,,,,,,,,,,,,,,
call-function,7,48900,0.0-4.0-3.0,VKnu0IjqtwkIeIw2M08Q,all,,L0RcsSDQctmciE9AckgAteJIbn,UIG5086UvrNYN3tL7cNflMcX09,,,,,,,,,,,,,,,,,,,,,,,,,,,,,,,
instructions,8,57203,0.0-4.0-4.0,VKnu0IjqtwkIeIw2M08Q,all,,L0RcsSDQctmciE9AckgAteJIbn,UIG5086UvrNYN3tL7cNflMcX09,dn_pt_trials_instructions,,,,,,"[{'page_index': 0, 'viewing_time': 8303}]",8303.0,False,4.0,,,,,,,,,,,,,,,,,,,,,
html-keyboard-response,9,57507,0.0-4.0-5.0-0.0-0.0,VKnu0IjqtwkIeIw2M08Q,all,,L0RcsSDQctmciE9AckgAteJIbn,UIG5086UvrNYN3tL7cNflMcX09,fixation_cross,,,,,,,,,,"<div class=""fixation-cross"">+</div>",,,,,,,,,,,,,,,,,,,,
html-keyboard-response,10,65948,0.0-4.0-5.0-0.0-1.0,VKnu0IjqtwkIeIw2M08Q,all,,L0RcsSDQctmciE9AckgAteJIbn,UIG5086UvrNYN3tL7cNflMcX09,dn_main_trial_version_A,,,,,,,8439.0,False,6.0,"<div id=""lottery_labels_container"">
                            <div>Lottery 1</div>
                            <div>Lottery 2</div>
                        </div>
                        <div id=""lottery_text_desc_container"">
                            <div id=""lottery_left_text"" class=""lottery_text""></div>
                            <div id=""lottery_right_text"" class=""lottery_text""></div>
                        </div>
                        <div id=""lotteries_container"">
                            <div id=""lottery_left_parent"" class=""lottery_parent"" style='visibility: hidden'"">
                                <div id=""lottery_left"" class=""lottery""></div>
                            </div>
                            <div id=""lottery_right_parent"" class=""lottery_parent"" "">
                                <div id=""lottery_right"" class=""lottery""></div>
                            </div>
                        </div>
                        <div id=""lottery_choices"">
                            <div class=""lottery_choice""><span>Draw from Lottery 1</span><br><span><i>left arrow</i></span></div>
                            <div class=""lottery_choice""><span>Draw from Lottery 2</span><br><span><i>right arrow</i></span></div>
                        </div>
                ",arrowright,True,0.0,0.0,A,harmony,text,array,small,large,0.3,0.3399999999999999,10.0,400.0,3.0,136.0,7.0,264.0,right,silver
html-keyboard-response,11,66963,0.0-4.0-5.0-0.0-2.0,VKnu0IjqtwkIeIw2M08Q,all,,L0RcsSDQctmciE9AckgAteJIbn,UIG5086UvrNYN3tL7cNflMcX09,dn_trial_feedback,,,,,,,,,,"<p style=""font-size: 3em; color: white; line-height: 2em;"">You drew a <b>silver coin</b>.</p>",,,,,,,,,,,,,,,,,,,,
html-keyboard-response,12,67276,0.0-4.0-5.0-0.0-0.1,VKnu0IjqtwkIeIw2M08Q,all,,L0RcsSDQctmciE9AckgAteJIbn,UIG5086UvrNYN3tL7cNflMcX09,fixation_cross,,,,,,,,,,"<div class=""fixation-cross"">+</div>",,,,,,,,,,,,,,,,,,,,
html-keyboard-response,13,70943,0.0-4.0-5.0-0.0-1.1,VKnu0IjqtwkIeIw2M08Q,all,,L0RcsSDQctmciE9AckgAteJIbn,UIG5086UvrNYN3tL7cNflMcX09,dn_main_trial_version_A,,,,,,,3665.0,False,9.0,"<div id=""lottery_labels_container"">
                            <div>Lottery 1</div>
                            <div>Lottery 2</div>
                        </div>
                        <div id=""lottery_text_desc_container"">
                            <div id=""lottery_left_text"" class=""lottery_text""></div>
                            <div id=""lottery_right_text"" class=""lottery_text""></div>
                        </div>
                        <div id=""lotteries_container"">
                            <div id=""lottery_left_parent"" class=""lottery_parent"" "">
                                <div id=""lottery_left"" class=""lottery""></div>
                            </div>
                            <div id=""lottery_right_parent"" class=""lottery_parent"" "">
                                <div id=""lottery_right"" class=""lottery""></div>
                            </div>
                        </div>
                        <div id=""lottery_choices"">
                            <div class=""lottery_choice""><span>Draw from Lottery 1</span><br><span><i>left arrow</i></span></div>
                            <div class=""lottery_choice""><span>Draw from Lottery 2</span><br><span><i>right arrow</i></span></div>
                        </div>
                ",arrowleft,True,0.0,1.0,A,harmony,array,array,large,small,0.3399999999999999,0.3,400.0,10.0,136.0,3.0,264.0,7.0,left,silver
html-keyboard-response,14,71952,0.0-4.0-5.0-0.0-2.1,VKnu0IjqtwkIeIw2M08Q,all,,L0RcsSDQctmciE9AckgAteJIbn,UIG5086UvrNYN3tL7cNflMcX09,dn_trial_feedback,,,,,,,,,,"<p style=""font-size: 3em; color: white; line-height: 2em;"">You drew a <b>silver coin</b>.</p>",,,,,,,,,,,,,,,,,,,,
html-keyboard-response,15,72266,0.0-4.0-5.0-0.0-0.2,VKnu0IjqtwkIeIw2M08Q,all,,L0RcsSDQctmciE9AckgAteJIbn,UIG5086UvrNYN3tL7cNflMcX09,fixation_cross,,,,,,,,,,"<div class=""fixation-cross"">+</div>",,,,,,,,,,,,,,,,,,,,
html-keyboard-response,16,75301,0.0-4.0-5.0-0.0-1.2,VKnu0IjqtwkIeIw2M08Q,all,,L0RcsSDQctmciE9AckgAteJIbn,UIG5086UvrNYN3tL7cNflMcX09,dn_main_trial_version_A,,,,,,,3034.0,False,12.0,"<div id=""lottery_labels_container"">
                            <div>Lottery 1</div>
                            <div>Lottery 2</div>
                        </div>
                        <div id=""lottery_text_desc_container"">
                            <div id=""lottery_left_text"" class=""lottery_text""></div>
                            <div id=""lottery_right_text"" class=""lottery_text""></div>
                        </div>
                        <div id=""lotteries_container"">
                            <div id=""lottery_left_parent"" class=""lottery_parent"" "">
                                <div id=""lottery_left"" class=""lottery""></div>
                            </div>
                            <div id=""lottery_right_parent"" class=""lottery_parent"" style='visibility: hidden'"">
                                <div id=""lottery_right"" class=""lottery""></div>
                            </div>
                        </div>
                        <div id=""lottery_choices"">
                            <div class=""lottery_choice""><span>Draw from Lottery 1</span><br><span><i>left arrow</i></span></div>
                            <div class=""lottery_choice""><span>Draw from Lottery 2</span><br><span><i>right arrow</i></span></div>
                        </div>
                ",arrowright,True,0.0,2.0,A,conflict,array,text,large,small,0.2199999999999999,0.3,400.0,10.0,88.0,3.0,312.0,7.0,right,silver
html-keyboard-response,17,76306,0.0-4.0-5.0-0.0-2.2,VKnu0IjqtwkIeIw2M08Q,all,,L0RcsSDQctmciE9AckgAteJIbn,UIG5086UvrNYN3tL7cNflMcX09,dn_trial_feedback,,,,,,,,,,"<p style=""font-size: 3em; color: white; line-height: 2em;"">You drew a <b>silver coin</b>.</p>",,,,,,,,,,,,,,,,,,,,
html-keyboard-response,18,76612,0.0-4.0-5.0-0.0-0.3,VKnu0IjqtwkIeIw2M08Q,all,,L0RcsSDQctmciE9AckgAteJIbn,UIG5086UvrNYN3tL7cNflMcX09,fixation_cross,,,,,,,,,,"<div class=""fixation-cross"">+</div>",,,,,,,,,,,,,,,,,,,,
html-keyboard-response,19,78811,0.0-4.0-5.0-0.0-1.3,VKnu0IjqtwkIeIw2M08Q,all,,L0RcsSDQctmciE9AckgAteJIbn,UIG5086UvrNYN3tL7cNflMcX09,dn_main_trial_version_A,,,,,,,2197.0,False,15.0,"<div id=""lottery_labels_container"">
                            <div>Lottery 1</div>
                            <div>Lottery 2</div>
                        </div>
                        <div id=""lottery_text_desc_container"">
                            <div id=""lottery_left_text"" class=""lottery_text""></div>
                            <div id=""lottery_right_text"" class=""lottery_text""></div>
                        </div>
                        <div id=""lotteries_container"">
                            <div id=""lottery_left_parent"" class=""lottery_parent"" "">
                                <div id=""lottery_left"" class=""lottery""></div>
                            </div>
                            <div id=""lottery_right_parent"" class=""lottery_parent"" "">
                                <div id=""lottery_right"" class=""lottery""></div>
                            </div>
                        </div>
                        <div id=""lottery_choices"">
                            <div class=""lottery_choice""><span>Draw from Lottery 1</span><br><span><i>left arrow</i></span></div>
                            <div class=""lottery_choice""><span>Draw from Lottery 2</span><br><span><i>right arrow</i></span></div>
                        </div>
                ",arrowright,True,0.0,3.0,A,conflict,array,array,large,small,0.03,0.1,400.0,10.0,12.0,1.0,388.0,9.0,right,silver
html-keyboard-response,20,79827,0.0-4.0-5.0-0.0-2.3,VKnu0IjqtwkIeIw2M08Q,all,,L0RcsSDQctmciE9AckgAteJIbn,UIG5086UvrNYN3tL7cNflMcX09,dn_trial_feedback,,,,,,,,,,"<p style=""font-size: 3em; color: white; line-height: 2em;"">You drew a <b>silver coin</b>.</p>",,,,,,,,,,,,,,,,,,,,
html-keyboard-response,21,80141,0.0-4.0-5.0-0.0-0.4,VKnu0IjqtwkIeIw2M08Q,all,,L0RcsSDQctmciE9AckgAteJIbn,UIG5086UvrNYN3tL7cNflMcX09,fixation_cross,,,,,,,,,,"<div class=""fixation-cross"">+</div>",,,,,,,,,,,,,,,,,,,,
html-keyboard-response,22,96153,0.0-4.0-5.0-0.0-1.4,VKnu0IjqtwkIeIw2M08Q,all,,L0RcsSDQctmciE9AckgAteJIbn,UIG5086UvrNYN3tL7cNflMcX09,dn_main_trial_version_A,,,,,,,,True,18.0,"<div id=""lottery_labels_container"">
                            <div>Lottery 1</div>
                            <div>Lottery 2</div>
                        </div>
                        <div id=""lottery_text_desc_container"">
                            <div id=""lottery_left_text"" class=""lottery_text""></div>
                            <div id=""lottery_right_text"" class=""lottery_text""></div>
                        </div>
                        <div id=""lotteries_container"">
                            <div id=""lottery_left_parent"" class=""lottery_parent"" "">
                                <div id=""lottery_left"" class=""lottery""></div>
                            </div>
                            <div id=""lottery_right_parent"" class=""lottery_parent"" style='visibility: hidden'"">
                                <div id=""lottery_right"" class=""lottery""></div>
                            </div>
                        </div>
                        <div id=""lottery_choices"">
                            <div class=""lottery_choice""><span>Draw from Lottery 1</span><br><span><i>left arrow</i></span></div>
                            <div class=""lottery_choice""><span>Draw from Lottery 2</span><br><span><i>right arrow</i></span></div>
                        </div>
                ",,True,0.0,4.0,A,conflict,array,text,small,large,0.2,0.16,10.0,400.0,2.0,64.0,8.0,336.0,,
html-keyboard-response,23,97165,0.0-4.0-5.0-0.0-2.4,VKnu0IjqtwkIeIw2M08Q,all,,L0RcsSDQctmciE9AckgAteJIbn,UIG5086UvrNYN3tL7cNflMcX09,dn_trial_feedback,,,,,,,,,,"<p style=""font-size: 3em; color: red;"">X<br><br>TOO SLOW</p>",,,,,,,,,,,,,,,,,,,,
html-keyboard-response,24,97472,0.0-4.0-5.0-0.0-0.5,VKnu0IjqtwkIeIw2M08Q,all,,L0RcsSDQctmciE9AckgAteJIbn,UIG5086UvrNYN3tL7cNflMcX09,fixation_cross,,,,,,,,,,"<div class=""fixation-cross"">+</div>",,,,,,,,,,,,,,,,,,,,
html-keyboard-response,25,99870,0.0-4.0-5.0-0.0-1.5,VKnu0IjqtwkIeIw2M08Q,all,,L0RcsSDQctmciE9AckgAteJIbn,UIG5086UvrNYN3tL7cNflMcX09,dn_main_trial_version_A,,,,,,,2396.0,False,21.0,"<div id=""lottery_labels_container"">
                            <div>Lottery 1</div>
                            <div>Lottery 2</div>
                        </div>
                        <div id=""lottery_text_desc_container"">
                            <div id=""lottery_left_text"" class=""lottery_text""></div>
                            <div id=""lottery_right_text"" class=""lottery_text""></div>
                        </div>
                        <div id=""lotteries_container"">
                            <div id=""lottery_left_parent"" class=""lottery_parent"" "">
                                <div id=""lottery_left"" class=""lottery""></div>
                            </div>
                            <div id=""lottery_right_parent"" class=""lottery_parent"" "">
                                <div id=""lottery_right"" class=""lottery""></div>
                            </div>
                        </div>
                        <div id=""lottery_choices"">
                            <div class=""lottery_choice""><span>Draw from Lottery 1</span><br><span><i>left arrow</i></span></div>
                            <div class=""lottery_choice""><span>Draw from Lottery 2</span><br><span><i>right arrow</i></span></div>
                        </div>
                ",arrowright,True,0.0,5.0,A,harmony,array,array,small,large,0.1,0.16,10.0,400.0,1.0,64.0,9.0,336.0,right,silver
html-keyboard-response,26,100877,0.0-4.0-5.0-0.0-2.5,VKnu0IjqtwkIeIw2M08Q,all,,L0RcsSDQctmciE9AckgAteJIbn,UIG5086UvrNYN3tL7cNflMcX09,dn_trial_feedback,,,,,,,,,,"<p style=""font-size: 3em; color: white; line-height: 2em;"">You drew a <b>silver coin</b>.</p>",,,,,,,,,,,,,,,,,,,,
html-keyboard-response,27,101192,0.0-4.0-5.0-0.0-0.6,VKnu0IjqtwkIeIw2M08Q,all,,L0RcsSDQctmciE9AckgAteJIbn,UIG5086UvrNYN3tL7cNflMcX09,fixation_cross,,,,,,,,,,"<div class=""fixation-cross"">+</div>",,,,,,,,,,,,,,,,,,,,
html-keyboard-response,28,104369,0.0-4.0-5.0-0.0-1.6,VKnu0IjqtwkIeIw2M08Q,all,,L0RcsSDQctmciE9AckgAteJIbn,UIG5086UvrNYN3tL7cNflMcX09,dn_main_trial_version_A,,,,,,,3176.0,False,24.0,"<div id=""lottery_labels_container"">
                            <div>Lottery 1</div>
                            <div>Lottery 2</div>
                        </div>
                        <div id=""lottery_text_desc_container"">
                            <div id=""lottery_left_text"" class=""lottery_text""></div>
                            <div id=""lottery_right_text"" class=""lottery_text""></div>
                        </div>
                        <div id=""lotteries_container"">
                            <div id=""lottery_left_parent"" class=""lottery_parent"" "">
                                <div id=""lottery_left"" class=""lottery""></div>
                            </div>
                            <div id=""lottery_right_parent"" class=""lottery_parent"" style='visibility: hidden'"">
                                <div id=""lottery_right"" class=""lottery""></div>
                            </div>
                        </div>
                        <div id=""lottery_choices"">
                            <div class=""lottery_choice""><span>Draw from Lottery 1</span><br><span><i>left arrow</i></span></div>
                            <div class=""lottery_choice""><span>Draw from Lottery 2</span><br><span><i>right arrow</i></span></div>
                        </div>
                ",arrowright,True,0.0,6.0,A,conflict,array,text,large,small,0.25,0.3,400.0,10.0,100.0,3.0,300.0,7.0,right,silver
html-keyboard-response,29,105375,0.0-4.0-5.0-0.0-2.6,VKnu0IjqtwkIeIw2M08Q,all,,L0RcsSDQctmciE9AckgAteJIbn,UIG5086UvrNYN3tL7cNflMcX09,dn_trial_feedback,,,,,,,,,,"<p style=""font-size: 3em; color: white; line-height: 2em;"">You drew a <b>silver coin</b>.</p>",,,,,,,,,,,,,,,,,,,,
html-keyboard-response,30,105688,0.0-4.0-5.0-0.0-0.7,VKnu0IjqtwkIeIw2M08Q,all,,L0RcsSDQctmciE9AckgAteJIbn,UIG5086UvrNYN3tL7cNflMcX09,fixation_cross,,,,,,,,,,"<div class=""fixation-cross"">+</div>",,,,,,,,,,,,,,,,,,,,
html-keyboard-response,31,106981,0.0-4.0-5.0-0.0-1.7,VKnu0IjqtwkIeIw2M08Q,all,,L0RcsSDQctmciE9AckgAteJIbn,UIG5086UvrNYN3tL7cNflMcX09,dn_main_trial_version_A,,,,,,,1292.0,False,27.0,"<div id=""lottery_labels_container"">
                            <div>Lottery 1</div>
                            <div>Lottery 2</div>
                        </div>
                        <div id=""lottery_text_desc_container"">
                            <div id=""lottery_left_text"" class=""lottery_text""></div>
                            <div id=""lottery_right_text"" class=""lottery_text""></div>
                        </div>
                        <div id=""lotteries_container"">
                            <div id=""lottery_left_parent"" class=""lottery_parent"" "">
                                <div id=""lottery_left"" class=""lottery""></div>
                            </div>
                            <div id=""lottery_right_parent"" class=""lottery_parent"" "">
                                <div id=""lottery_right"" class=""lottery""></div>
                            </div>
                        </div>
                        <div id=""lottery_choices"">
                            <div class=""lottery_choice""><span>Draw from Lottery 1</span><br><span><i>left arrow</i></span></div>
                            <div class=""lottery_choice""><span>Draw from Lottery 2</span><br><span><i>right arrow</i></span></div>
                        </div>
                ",arrowleft,True,0.0,7.0,A,conflict,array,array,small,large,0.2,0.12,10.0,400.0,2.0,48.0,8.0,352.0,left,silver
html-keyboard-response,32,107993,0.0-4.0-5.0-0.0-2.7,VKnu0IjqtwkIeIw2M08Q,all,,L0RcsSDQctmciE9AckgAteJIbn,UIG5086UvrNYN3tL7cNflMcX09,dn_trial_feedback,,,,,,,,,,"<p style=""font-size: 3em; color: white; line-height: 2em;"">You drew a <b>silver coin</b>.</p>",,,,,,,,,,,,,,,,,,,,
instructions,33,114210,0.0-4.0-6.0,VKnu0IjqtwkIeIw2M08Q,all,,L0RcsSDQctmciE9AckgAteJIbn,UIG5086UvrNYN3tL7cNflMcX09,dn_test_trials_instructions,,,,,,"[{'page_index': 0, 'viewing_time': 6215}]",6216.0,False,29.0,,,,,,,,,,,,,,,,,,,,,
html-keyboard-response,34,114514,0.0-4.0-7.0-0.0-0.0,VKnu0IjqtwkIeIw2M08Q,all,,L0RcsSDQctmciE9AckgAteJIbn,UIG5086UvrNYN3tL7cNflMcX09,fixation_cross,,,,,,,,,,"<div class=""fixation-cross"">+</div>",,,,,,,,,,,,,,,,,,,,
html-keyboard-response,35,116693,0.0-4.0-7.0-0.0-1.0,VKnu0IjqtwkIeIw2M08Q,all,,L0RcsSDQctmciE9AckgAteJIbn,UIG5086UvrNYN3tL7cNflMcX09,dn_main_trial_version_A,,,,,,,2177.0,False,31.0,"<div id=""lottery_labels_container"">
                            <div>Lottery 1</div>
                            <div>Lottery 2</div>
                        </div>
                        <div id=""lottery_text_desc_container"">
                            <div id=""lottery_left_text"" class=""lottery_text""></div>
                            <div id=""lottery_right_text"" class=""lottery_text""></div>
                        </div>
                        <div id=""lotteries_container"">
                            <div id=""lottery_left_parent"" class=""lottery_parent"" "">
                                <div id=""lottery_left"" class=""lottery""></div>
                            </div>
                            <div id=""lottery_right_parent"" class=""lottery_parent"" "">
                                <div id=""lottery_right"" class=""lottery""></div>
                            </div>
                        </div>
                        <div id=""lottery_choices"">
                            <div class=""lottery_choice""><span>Draw from Lottery 1</span><br><span><i>left arrow</i></span></div>
                            <div class=""lottery_choice""><span>Draw from Lottery 2</span><br><span><i>right arrow</i></span></div>
                        </div>
                ",arrowleft,False,0.0,0.0,A,harmony,array,array,large,small,0.18,0.1,400.0,10.0,72.0,1.0,328.0,9.0,left,gold
html-keyboard-response,36,117709,0.0-4.0-7.0-0.0-2.0,VKnu0IjqtwkIeIw2M08Q,all,,L0RcsSDQctmciE9AckgAteJIbn,UIG5086UvrNYN3tL7cNflMcX09,dn_trial_feedback,,,,,,,,,,"<p style=""font-size: 3em; color: gold; line-height: 2em;"">You drew a <b>gold coin</b>.</p>",,,,,,,,,,,,,,,,,,,,
html-keyboard-response,37,118016,0.0-4.0-7.0-0.0-0.1,VKnu0IjqtwkIeIw2M08Q,all,,L0RcsSDQctmciE9AckgAteJIbn,UIG5086UvrNYN3tL7cNflMcX09,fixation_cross,,,,,,,,,,"<div class=""fixation-cross"">+</div>",,,,,,,,,,,,,,,,,,,,
html-keyboard-response,38,120414,0.0-4.0-7.0-0.0-1.1,VKnu0IjqtwkIeIw2M08Q,all,,L0RcsSDQctmciE9AckgAteJIbn,UIG5086UvrNYN3tL7cNflMcX09,dn_main_trial_version_A,,,,,,,2396.0,False,35.0,"<div id=""lottery_labels_container"">
                            <div>Lottery 1</div>
                            <div>Lottery 2</div>
                        </div>
                        <div id=""lottery_text_desc_container"">
                            <div id=""lottery_left_text"" class=""lottery_text""></div>
                            <div id=""lottery_right_text"" class=""lottery_text""></div>
                        </div>
                        <div id=""lotteries_container"">
                            <div id=""lottery_left_parent"" class=""lottery_parent"" style='visibility: hidden'"">
                                <div id=""lottery_left"" class=""lottery""></div>
                            </div>
                            <div id=""lottery_right_parent"" class=""lottery_parent"" "">
                                <div id=""lottery_right"" class=""lottery""></div>
                            </div>
                        </div>
                        <div id=""lottery_choices"">
                            <div class=""lottery_choice""><span>Draw from Lottery 1</span><br><span><i>left arrow</i></span></div>
                            <div class=""lottery_choice""><span>Draw from Lottery 2</span><br><span><i>right arrow</i></span></div>
                        </div>
                ",arrowleft,False,0.0,1.0,A,conflict,text,array,small,large,0.1,0.02,10.0,400.0,1.0,8.0,9.0,392.0,left,silver
html-keyboard-response,39,121429,0.0-4.0-7.0-0.0-2.1,VKnu0IjqtwkIeIw2M08Q,all,,L0RcsSDQctmciE9AckgAteJIbn,UIG5086UvrNYN3tL7cNflMcX09,dn_trial_feedback,,,,,,,,,,"<p style=""font-size: 3em; color: white; line-height: 2em;"">You drew a <b>silver coin</b>.</p>",,,,,,,,,,,,,,,,,,,,
html-keyboard-response,40,121743,0.0-4.0-7.0-0.0-0.2,VKnu0IjqtwkIeIw2M08Q,all,,L0RcsSDQctmciE9AckgAteJIbn,UIG5086UvrNYN3tL7cNflMcX09,fixation_cross,,,,,,,,,,"<div class=""fixation-cross"">+</div>",,,,,,,,,,,,,,,,,,,,
html-keyboard-response,41,123486,0.0-4.0-7.0-0.0-1.2,VKnu0IjqtwkIeIw2M08Q,all,,L0RcsSDQctmciE9AckgAteJIbn,UIG5086UvrNYN3tL7cNflMcX09,dn_main_trial_version_A,,,,,,,1742.0,False,38.0,"<div id=""lottery_labels_container"">
                            <div>Lottery 1</div>
                            <div>Lottery 2</div>
                        </div>
                        <div id=""lottery_text_desc_container"">
                            <div id=""lottery_left_text"" class=""lottery_text""></div>
                            <div id=""lottery_right_text"" class=""lottery_text""></div>
                        </div>
                        <div id=""lotteries_container"">
                            <div id=""lottery_left_parent"" class=""lottery_parent"" style='visibility: hidden'"">
                                <div id=""lottery_left"" class=""lottery""></div>
                            </div>
                            <div id=""lottery_right_parent"" class=""lottery_parent"" "">
                                <div id=""lottery_right"" class=""lottery""></div>
                            </div>
                        </div>
                        <div id=""lottery_choices"">
                            <div class=""lottery_choice""><span>Draw from Lottery 1</span><br><span><i>left arrow</i></span></div>
                            <div class=""lottery_choice""><span>Draw from Lottery 2</span><br><span><i>right arrow</i></span></div>
                        </div>
                ",arrowleft,False,0.0,2.0,A,harmony,text,array,small,large,0.1,0.14,10.0,400.0,1.0,56.0,9.0,344.0,left,silver
html-keyboard-response,42,124502,0.0-4.0-7.0-0.0-2.2,VKnu0IjqtwkIeIw2M08Q,all,,L0RcsSDQctmciE9AckgAteJIbn,UIG5086UvrNYN3tL7cNflMcX09,dn_trial_feedback,,,,,,,,,,"<p style=""font-size: 3em; color: white; line-height: 2em;"">You drew a <b>silver coin</b>.</p>",,,,,,,,,,,,,,,,,,,,
html-keyboard-response,43,124816,0.0-4.0-7.0-0.0-0.3,VKnu0IjqtwkIeIw2M08Q,all,,L0RcsSDQctmciE9AckgAteJIbn,UIG5086UvrNYN3tL7cNflMcX09,fixation_cross,,,,,,,,,,"<div class=""fixation-cross"">+</div>",,,,,,,,,,,,,,,,,,,,
html-keyboard-response,44,125885,0.0-4.0-7.0-0.0-1.3,VKnu0IjqtwkIeIw2M08Q,all,,L0RcsSDQctmciE9AckgAteJIbn,UIG5086UvrNYN3tL7cNflMcX09,dn_main_trial_version_A,,,,,,,1068.0,False,41.0,"<div id=""lottery_labels_container"">
                            <div>Lottery 1</div>
                            <div>Lottery 2</div>
                        </div>
                        <div id=""lottery_text_desc_container"">
                            <div id=""lottery_left_text"" class=""lottery_text""></div>
                            <div id=""lottery_right_text"" class=""lottery_text""></div>
                        </div>
                        <div id=""lotteries_container"">
                            <div id=""lottery_left_parent"" class=""lottery_parent"" "">
                                <div id=""lottery_left"" class=""lottery""></div>
                            </div>
                            <div id=""lottery_right_parent"" class=""lottery_parent"" "">
                                <div id=""lottery_right"" class=""lottery""></div>
                            </div>
                        </div>
                        <div id=""lottery_choices"">
                            <div class=""lottery_choice""><span>Draw from Lottery 1</span><br><span><i>left arrow</i></span></div>
                            <div class=""lottery_choice""><span>Draw from Lottery 2</span><br><span><i>right arrow</i></span></div>
                        </div>
                ",arrowleft,False,0.0,3.0,A,conflict,array,array,large,small,0.29,0.3,400.0,10.0,116.0,3.0,284.0,7.0,left,silver
html-keyboard-response,45,126901,0.0-4.0-7.0-0.0-2.3,VKnu0IjqtwkIeIw2M08Q,all,,L0RcsSDQctmciE9AckgAteJIbn,UIG5086UvrNYN3tL7cNflMcX09,dn_trial_feedback,,,,,,,,,,"<p style=""font-size: 3em; color: white; line-height: 2em;"">You drew a <b>silver coin</b>.</p>",,,,,,,,,,,,,,,,,,,,
html-keyboard-response,46,127214,0.0-4.0-7.0-0.0-0.4,VKnu0IjqtwkIeIw2M08Q,all,,L0RcsSDQctmciE9AckgAteJIbn,UIG5086UvrNYN3tL7cNflMcX09,fixation_cross,,,,,,,,,,"<div class=""fixation-cross"">+</div>",,,,,,,,,,,,,,,,,,,,
html-keyboard-response,47,128954,0.0-4.0-7.0-0.0-1.4,VKnu0IjqtwkIeIw2M08Q,all,,L0RcsSDQctmciE9AckgAteJIbn,UIG5086UvrNYN3tL7cNflMcX09,dn_main_trial_version_A,,,,,,,1738.0,False,44.0,"<div id=""lottery_labels_container"">
                            <div>Lottery 1</div>
                            <div>Lottery 2</div>
                        </div>
                        <div id=""lottery_text_desc_container"">
                            <div id=""lottery_left_text"" class=""lottery_text""></div>
                            <div id=""lottery_right_text"" class=""lottery_text""></div>
                        </div>
                        <div id=""lotteries_container"">
                            <div id=""lottery_left_parent"" class=""lottery_parent"" "">
                                <div id=""lottery_left"" class=""lottery""></div>
                            </div>
                            <div id=""lottery_right_parent"" class=""lottery_parent"" "">
                                <div id=""lottery_right"" class=""lottery""></div>
                            </div>
                        </div>
                        <div id=""lottery_choices"">
                            <div class=""lottery_choice""><span>Draw from Lottery 1</span><br><span><i>left arrow</i></span></div>
                            <div class=""lottery_choice""><span>Draw from Lottery 2</span><br><span><i>right arrow</i></span></div>
                        </div>
                ",arrowleft,False,0.0,4.0,A,harmony,array,array,large,small,0.35,0.3,400.0,10.0,140.0,3.0,260.0,7.0,left,silver
html-keyboard-response,48,129960,0.0-4.0-7.0-0.0-2.4,VKnu0IjqtwkIeIw2M08Q,all,,L0RcsSDQctmciE9AckgAteJIbn,UIG5086UvrNYN3tL7cNflMcX09,dn_trial_feedback,,,,,,,,,,"<p style=""font-size: 3em; color: white; line-height: 2em;"">You drew a <b>silver coin</b>.</p>",,,,,,,,,,,,,,,,,,,,
html-keyboard-response,49,130274,0.0-4.0-7.0-0.0-0.5,VKnu0IjqtwkIeIw2M08Q,all,,L0RcsSDQctmciE9AckgAteJIbn,UIG5086UvrNYN3tL7cNflMcX09,fixation_cross,,,,,,,,,,"<div class=""fixation-cross"">+</div>",,,,,,,,,,,,,,,,,,,,
html-keyboard-response,50,133415,0.0-4.0-7.0-0.0-1.5,VKnu0IjqtwkIeIw2M08Q,all,,L0RcsSDQctmciE9AckgAteJIbn,UIG5086UvrNYN3tL7cNflMcX09,dn_main_trial_version_A,,,,,,,3139.0,False,47.0,"<div id=""lottery_labels_container"">
                            <div>Lottery 1</div>
                            <div>Lottery 2</div>
                        </div>
                        <div id=""lottery_text_desc_container"">
                            <div id=""lottery_left_text"" class=""lottery_text""></div>
                            <div id=""lottery_right_text"" class=""lottery_text""></div>
                        </div>
                        <div id=""lotteries_container"">
                            <div id=""lottery_left_parent"" class=""lottery_parent"" style='visibility: hidden'"">
                                <div id=""lottery_left"" class=""lottery""></div>
                            </div>
                            <div id=""lottery_right_parent"" class=""lottery_parent"" "">
                                <div id=""lottery_right"" class=""lottery""></div>
                            </div>
                        </div>
                        <div id=""lottery_choices"">
                            <div class=""lottery_choice""><span>Draw from Lottery 1</span><br><span><i>left arrow</i></span></div>
                            <div class=""lottery_choice""><span>Draw from Lottery 2</span><br><span><i>right arrow</i></span></div>
                        </div>
                ",arrowleft,False,0.0,5.0,A,conflict,text,array,small,large,0.2,0.16,10.0,400.0,2.0,64.0,8.0,336.0,left,silver
html-keyboard-response,51,134417,0.0-4.0-7.0-0.0-2.5,VKnu0IjqtwkIeIw2M08Q,all,,L0RcsSDQctmciE9AckgAteJIbn,UIG5086UvrNYN3tL7cNflMcX09,dn_trial_feedback,,,,,,,,,,"<p style=""font-size: 3em; color: white; line-height: 2em;"">You drew a <b>silver coin</b>.</p>",,,,,,,,,,,,,,,,,,,,
html-keyboard-response,52,134731,0.0-4.0-7.0-0.0-0.6,VKnu0IjqtwkIeIw2M08Q,all,,L0RcsSDQctmciE9AckgAteJIbn,UIG5086UvrNYN3tL7cNflMcX09,fixation_cross,,,,,,,,,,"<div class=""fixation-cross"">+</div>",,,,,,,,,,,,,,,,,,,,
html-keyboard-response,53,138386,0.0-4.0-7.0-0.0-1.6,VKnu0IjqtwkIeIw2M08Q,all,,L0RcsSDQctmciE9AckgAteJIbn,UIG5086UvrNYN3tL7cNflMcX09,dn_main_trial_version_A,,,,,,,3653.0,False,50.0,"<div id=""lottery_labels_container"">
                            <div>Lottery 1</div>
                            <div>Lottery 2</div>
                        </div>
                        <div id=""lottery_text_desc_container"">
                            <div id=""lottery_left_text"" class=""lottery_text""></div>
                            <div id=""lottery_right_text"" class=""lottery_text""></div>
                        </div>
                        <div id=""lotteries_container"">
                            <div id=""lottery_left_parent"" class=""lottery_parent"" style='visibility: hidden'"">
                                <div id=""lottery_left"" class=""lottery""></div>
                            </div>
                            <div id=""lottery_right_parent"" class=""lottery_parent"" "">
                                <div id=""lottery_right"" class=""lottery""></div>
                            </div>
                        </div>
                        <div id=""lottery_choices"">
                            <div class=""lottery_choice""><span>Draw from Lottery 1</span><br><span><i>left arrow</i></span></div>
                            <div class=""lottery_choice""><span>Draw from Lottery 2</span><br><span><i>right arrow</i></span></div>
                        </div>
                ",arrowleft,False,0.0,6.0,A,harmony,text,array,small,large,0.1,0.13,10.0,400.0,1.0,52.0,9.0,348.0,left,silver
html-keyboard-response,54,139400,0.0-4.0-7.0-0.0-2.6,VKnu0IjqtwkIeIw2M08Q,all,,L0RcsSDQctmciE9AckgAteJIbn,UIG5086UvrNYN3tL7cNflMcX09,dn_trial_feedback,,,,,,,,,,"<p style=""font-size: 3em; color: white; line-height: 2em;"">You drew a <b>silver coin</b>.</p>",,,,,,,,,,,,,,,,,,,,
html-keyboard-response,55,139713,0.0-4.0-7.0-0.0-0.7,VKnu0IjqtwkIeIw2M08Q,all,,L0RcsSDQctmciE9AckgAteJIbn,UIG5086UvrNYN3tL7cNflMcX09,fixation_cross,,,,,,,,,,"<div class=""fixation-cross"">+</div>",,,,,,,,,,,,,,,,,,,,
html-keyboard-response,56,141658,0.0-4.0-7.0-0.0-1.7,VKnu0IjqtwkIeIw2M08Q,all,,L0RcsSDQctmciE9AckgAteJIbn,UIG5086UvrNYN3tL7cNflMcX09,dn_main_trial_version_A,,,,,,,1943.0,False,53.0,"<div id=""lottery_labels_container"">
                            <div>Lottery 1</div>
                            <div>Lottery 2</div>
                        </div>
                        <div id=""lottery_text_desc_container"">
                            <div id=""lottery_left_text"" class=""lottery_text""></div>
                            <div id=""lottery_right_text"" class=""lottery_text""></div>
                        </div>
                        <div id=""lotteries_container"">
                            <div id=""lottery_left_parent"" class=""lottery_parent"" "">
                                <div id=""lottery_left"" class=""lottery""></div>
                            </div>
                            <div id=""lottery_right_parent"" class=""lottery_parent"" "">
                                <div id=""lottery_right"" class=""lottery""></div>
                            </div>
                        </div>
                        <div id=""lottery_choices"">
                            <div class=""lottery_choice""><span>Draw from Lottery 1</span><br><span><i>left arrow</i></span></div>
                            <div class=""lottery_choice""><span>Draw from Lottery 2</span><br><span><i>right arrow</i></span></div>
                        </div>
                ",arrowright,False,0.0,7.0,A,conflict,array,array,large,small,0.06,0.1,400.0,10.0,24.0,1.0,376.0,9.0,right,silver
html-keyboard-response,57,142669,0.0-4.0-7.0-0.0-2.7,VKnu0IjqtwkIeIw2M08Q,all,,L0RcsSDQctmciE9AckgAteJIbn,UIG5086UvrNYN3tL7cNflMcX09,dn_trial_feedback,,,,,,,,,,"<p style=""font-size: 3em; color: white; line-height: 2em;"">You drew a <b>silver coin</b>.</p>",,,,,,,,,,,,,,,,,,,,
call-function,58,142670,0.0-4.0-8.0,VKnu0IjqtwkIeIw2M08Q,all,,L0RcsSDQctmciE9AckgAteJIbn,UIG5086UvrNYN3tL7cNflMcX09,,,,,,,,,,,,,,,,,,,,,,,,,,,,,,,
html-button-response,59,147438,0.0-4.0-9.0,VKnu0IjqtwkIeIw2M08Q,all,,L0RcsSDQctmciE9AckgAteJIbn,UIG5086UvrNYN3tL7cNflMcX09,feedback_Denominator Neglect_A,,,,,,,4766.0,,,"
                    <p class=""instructions-title"">Feedback?</p>
                    <p>If something went wrong during the last task or you think we can improve it, please leave any and all comments you have here.</p>
                    <div style=""margin-bottom: 3vh"">
                        <textarea id=""task_feedback"" style=""width: 50vw; height: 15vh;""></textarea>
                    </div>
                ",,,,,,,,,,,,,,,,,,,,
call-function,60,147438,0.0-4.0-10.0,VKnu0IjqtwkIeIw2M08Q,all,,L0RcsSDQctmciE9AckgAteJIbn,UIG5086UvrNYN3tL7cNflMcX09,,,,,,,,,,,,,,,,,,,,,,,,,,,,,,,
html-keyboard-response,61,147439,0.0-4.0-12.0,VKnu0IjqtwkIeIw2M08Q,all,,L0RcsSDQctmciE9AckgAteJIbn,UIG5086UvrNYN3tL7cNflMcX09,async_data_save,,,,Denominator Neglect_A__completed,2.0,,,,,,,,,,,,,,,,,,,,,,,,,
html-keyboard-response,62,147441,0.0-6.0-0.0-0.0,VKnu0IjqtwkIeIw2M08Q,all,,L0RcsSDQctmciE9AckgAteJIbn,UIG5086UvrNYN3tL7cNflMcX09,,,,,,,,,,,,,,,,,,,,,,,,,,,,,,,
call-function,63,147601,0.0-6.0-1.0,VKnu0IjqtwkIeIw2M08Q,all,,L0RcsSDQctmciE9AckgAteJIbn,UIG5086UvrNYN3tL7cNflMcX09,,,,,,,,,,,,,,,,,,,,,,,,,,,,,,,
instructions,64,152845,0.0-6.0-2.0,VKnu0IjqtwkIeIw2M08Q,all,,L0RcsSDQctmciE9AckgAteJIbn,UIG5086UvrNYN3tL7cNflMcX09,dn_general_instructions,,,,,,"[{'page_index': 0, 'viewing_time': 5243}]",5243.0,False,57.0,,,,,,,,,,,,,,,,,,,,,
call-function,65,152849,0.0-6.0-3.0,VKnu0IjqtwkIeIw2M08Q,all,,L0RcsSDQctmciE9AckgAteJIbn,UIG5086UvrNYN3tL7cNflMcX09,,,,,,,,,,,,,,,,,,,,,,,,,,,,,,,
instructions,66,155246,0.0-6.0-4.0,VKnu0IjqtwkIeIw2M08Q,all,,L0RcsSDQctmciE9AckgAteJIbn,UIG5086UvrNYN3tL7cNflMcX09,dn_pt_trials_instructions,,,,,,"[{'page_index': 0, 'viewing_time': 2396}]",2396.0,False,58.0,,,,,,,,,,,,,,,,,,,,,
html-keyboard-response,67,155548,0.0-6.0-5.0-0.0-0.0,VKnu0IjqtwkIeIw2M08Q,all,,L0RcsSDQctmciE9AckgAteJIbn,UIG5086UvrNYN3tL7cNflMcX09,fixation_cross,,,,,,,,,,"<div class=""fixation-cross"">+</div>",,,,,,,,,,,,,,,,,,,,
html-keyboard-response,68,160543,0.0-6.0-5.0-0.0-1.0,VKnu0IjqtwkIeIw2M08Q,all,,L0RcsSDQctmciE9AckgAteJIbn,UIG5086UvrNYN3tL7cNflMcX09,dn_main_trial_version_A,,,,,,,4993.0,False,60.0,"<div id=""lottery_labels_container"">
                            <div>Lottery 1</div>
                            <div>Lottery 2</div>
                        </div>
                        <div id=""lottery_text_desc_container"">
                            <div id=""lottery_left_text"" class=""lottery_text""></div>
                            <div id=""lottery_right_text"" class=""lottery_text""></div>
                        </div>
                        <div id=""lotteries_container"">
                            <div id=""lottery_left_parent"" class=""lottery_parent"" "">
                                <div id=""lottery_left"" class=""lottery""></div>
                            </div>
                            <div id=""lottery_right_parent"" class=""lottery_parent"" "">
                                <div id=""lottery_right"" class=""lottery""></div>
                            </div>
                        </div>
                        <div id=""lottery_choices"">
                            <div class=""lottery_choice""><span>Draw from Lottery 1</span><br><span><i>left arrow</i></span></div>
                            <div class=""lottery_choice""><span>Draw from Lottery 2</span><br><span><i>right arrow</i></span></div>
                        </div>
                ",arrowleft,True,0.0,0.0,B,harmony,both,both,large,small,0.18,0.1,400.0,10.0,72.0,1.0,328.0,9.0,left,silver
html-keyboard-response,69,161546,0.0-6.0-5.0-0.0-2.0,VKnu0IjqtwkIeIw2M08Q,all,,L0RcsSDQctmciE9AckgAteJIbn,UIG5086UvrNYN3tL7cNflMcX09,dn_trial_feedback,,,,,,,,,,"<p style=""font-size: 3em; color: white; line-height: 2em;"">You drew a <b>silver coin</b>.</p>",,,,,,,,,,,,,,,,,,,,
html-keyboard-response,70,161860,0.0-6.0-5.0-0.0-0.1,VKnu0IjqtwkIeIw2M08Q,all,,L0RcsSDQctmciE9AckgAteJIbn,UIG5086UvrNYN3tL7cNflMcX09,fixation_cross,,,,,,,,,,"<div class=""fixation-cross"">+</div>",,,,,,,,,,,,,,,,,,,,
html-keyboard-response,71,163221,0.0-6.0-5.0-0.0-1.1,VKnu0IjqtwkIeIw2M08Q,all,,L0RcsSDQctmciE9AckgAteJIbn,UIG5086UvrNYN3tL7cNflMcX09,dn_main_trial_version_A,,,,,,,1360.0,False,63.0,"<div id=""lottery_labels_container"">
                            <div>Lottery 1</div>
                            <div>Lottery 2</div>
                        </div>
                        <div id=""lottery_text_desc_container"">
                            <div id=""lottery_left_text"" class=""lottery_text""></div>
                            <div id=""lottery_right_text"" class=""lottery_text""></div>
                        </div>
                        <div id=""lotteries_container"">
                            <div id=""lottery_left_parent"" class=""lottery_parent"" "">
                                <div id=""lottery_left"" class=""lottery""></div>
                            </div>
                            <div id=""lottery_right_parent"" class=""lottery_parent"" "">
                                <div id=""lottery_right"" class=""lottery""></div>
                            </div>
                        </div>
                        <div id=""lottery_choices"">
                            <div class=""lottery_choice""><span>Draw from Lottery 1</span><br><span><i>left arrow</i></span></div>
                            <div class=""lottery_choice""><span>Draw from Lottery 2</span><br><span><i>right arrow</i></span></div>
                        </div>
                ",arrowright,True,0.0,1.0,B,harmony,both,both,small,large,0.3,0.32,10.0,400.0,3.0,128.0,7.0,272.0,right,gold
html-keyboard-response,72,164228,0.0-6.0-5.0-0.0-2.1,VKnu0IjqtwkIeIw2M08Q,all,,L0RcsSDQctmciE9AckgAteJIbn,UIG5086UvrNYN3tL7cNflMcX09,dn_trial_feedback,,,,,,,,,,"<p style=""font-size: 3em; color: gold; line-height: 2em;"">You drew a <b>gold coin</b>.</p>",,,,,,,,,,,,,,,,,,,,
html-keyboard-response,73,164541,0.0-6.0-5.0-0.0-0.2,VKnu0IjqtwkIeIw2M08Q,all,,L0RcsSDQctmciE9AckgAteJIbn,UIG5086UvrNYN3tL7cNflMcX09,fixation_cross,,,,,,,,,,"<div class=""fixation-cross"">+</div>",,,,,,,,,,,,,,,,,,,,
html-keyboard-response,74,166558,0.0-6.0-5.0-0.0-1.2,VKnu0IjqtwkIeIw2M08Q,all,,L0RcsSDQctmciE9AckgAteJIbn,UIG5086UvrNYN3tL7cNflMcX09,dn_main_trial_version_A,,,,,,,2015.0,False,67.0,"<div id=""lottery_labels_container"">
                            <div>Lottery 1</div>
                            <div>Lottery 2</div>
                        </div>
                        <div id=""lottery_text_desc_container"">
                            <div id=""lottery_left_text"" class=""lottery_text""></div>
                            <div id=""lottery_right_text"" class=""lottery_text""></div>
                        </div>
                        <div id=""lotteries_container"">
                            <div id=""lottery_left_parent"" class=""lottery_parent"" "">
                                <div id=""lottery_left"" class=""lottery""></div>
                            </div>
                            <div id=""lottery_right_parent"" class=""lottery_parent"" "">
                                <div id=""lottery_right"" class=""lottery""></div>
                            </div>
                        </div>
                        <div id=""lottery_choices"">
                            <div class=""lottery_choice""><span>Draw from Lottery 1</span><br><span><i>left arrow</i></span></div>
                            <div class=""lottery_choice""><span>Draw from Lottery 2</span><br><span><i>right arrow</i></span></div>
                        </div>
                ",arrowright,True,0.0,2.0,B,conflict,both,both,large,small,0.24,0.3,400.0,10.0,96.0,3.0,304.0,7.0,right,gold
html-keyboard-response,75,167567,0.0-6.0-5.0-0.0-2.2,VKnu0IjqtwkIeIw2M08Q,all,,L0RcsSDQctmciE9AckgAteJIbn,UIG5086UvrNYN3tL7cNflMcX09,dn_trial_feedback,,,,,,,,,,"<p style=""font-size: 3em; color: gold; line-height: 2em;"">You drew a <b>gold coin</b>.</p>",,,,,,,,,,,,,,,,,,,,
html-keyboard-response,76,167881,0.0-6.0-5.0-0.0-0.3,VKnu0IjqtwkIeIw2M08Q,all,,L0RcsSDQctmciE9AckgAteJIbn,UIG5086UvrNYN3tL7cNflMcX09,fixation_cross,,,,,,,,,,"<div class=""fixation-cross"">+</div>",,,,,,,,,,,,,,,,,,,,
html-keyboard-response,77,168867,0.0-6.0-5.0-0.0-1.3,VKnu0IjqtwkIeIw2M08Q,all,,L0RcsSDQctmciE9AckgAteJIbn,UIG5086UvrNYN3tL7cNflMcX09,dn_main_trial_version_A,,,,,,,985.0,False,71.0,"<div id=""lottery_labels_container"">
                            <div>Lottery 1</div>
                            <div>Lottery 2</div>
                        </div>
                        <div id=""lottery_text_desc_container"">
                            <div id=""lottery_left_text"" class=""lottery_text""></div>
                            <div id=""lottery_right_text"" class=""lottery_text""></div>
                        </div>
                        <div id=""lotteries_container"">
                            <div id=""lottery_left_parent"" class=""lottery_parent"" "">
                                <div id=""lottery_left"" class=""lottery""></div>
                            </div>
                            <div id=""lottery_right_parent"" class=""lottery_parent"" "">
                                <div id=""lottery_right"" class=""lottery""></div>
                            </div>
                        </div>
                        <div id=""lottery_choices"">
                            <div class=""lottery_choice""><span>Draw from Lottery 1</span><br><span><i>left arrow</i></span></div>
                            <div class=""lottery_choice""><span>Draw from Lottery 2</span><br><span><i>right arrow</i></span></div>
                        </div>
                ",arrowleft,True,0.0,3.0,B,conflict,both,both,small,large,0.1,0.08,10.0,400.0,1.0,32.0,9.0,368.0,left,silver
html-keyboard-response,78,169874,0.0-6.0-5.0-0.0-2.3,VKnu0IjqtwkIeIw2M08Q,all,,L0RcsSDQctmciE9AckgAteJIbn,UIG5086UvrNYN3tL7cNflMcX09,dn_trial_feedback,,,,,,,,,,"<p style=""font-size: 3em; color: white; line-height: 2em;"">You drew a <b>silver coin</b>.</p>",,,,,,,,,,,,,,,,,,,,
html-keyboard-response,79,170188,0.0-6.0-5.0-0.0-0.4,VKnu0IjqtwkIeIw2M08Q,all,,L0RcsSDQctmciE9AckgAteJIbn,UIG5086UvrNYN3tL7cNflMcX09,fixation_cross,,,,,,,,,,"<div class=""fixation-cross"">+</div>",,,,,,,,,,,,,,,,,,,,
html-keyboard-response,80,172246,0.0-6.0-5.0-0.0-1.4,VKnu0IjqtwkIeIw2M08Q,all,,L0RcsSDQctmciE9AckgAteJIbn,UIG5086UvrNYN3tL7cNflMcX09,dn_main_trial_version_A,,,,,,,2057.0,False,74.0,"<div id=""lottery_labels_container"">
                            <div>Lottery 1</div>
                            <div>Lottery 2</div>
                        </div>
                        <div id=""lottery_text_desc_container"">
                            <div id=""lottery_left_text"" class=""lottery_text""></div>
                            <div id=""lottery_right_text"" class=""lottery_text""></div>
                        </div>
                        <div id=""lotteries_container"">
                            <div id=""lottery_left_parent"" class=""lottery_parent"" "">
                                <div id=""lottery_left"" class=""lottery""></div>
                            </div>
                            <div id=""lottery_right_parent"" class=""lottery_parent"" "">
                                <div id=""lottery_right"" class=""lottery""></div>
                            </div>
                        </div>
                        <div id=""lottery_choices"">
                            <div class=""lottery_choice""><span>Draw from Lottery 1</span><br><span><i>left arrow</i></span></div>
                            <div class=""lottery_choice""><span>Draw from Lottery 2</span><br><span><i>right arrow</i></span></div>
                        </div>
                ",arrowleft,True,0.0,4.0,B,harmony,both,both,large,small,0.25,0.2,400.0,10.0,100.0,2.0,300.0,8.0,left,gold
html-keyboard-response,81,173254,0.0-6.0-5.0-0.0-2.4,VKnu0IjqtwkIeIw2M08Q,all,,L0RcsSDQctmciE9AckgAteJIbn,UIG5086UvrNYN3tL7cNflMcX09,dn_trial_feedback,,,,,,,,,,"<p style=""font-size: 3em; color: gold; line-height: 2em;"">You drew a <b>gold coin</b>.</p>",,,,,,,,,,,,,,,,,,,,
html-keyboard-response,82,173568,0.0-6.0-5.0-0.0-0.5,VKnu0IjqtwkIeIw2M08Q,all,,L0RcsSDQctmciE9AckgAteJIbn,UIG5086UvrNYN3tL7cNflMcX09,fixation_cross,,,,,,,,,,"<div class=""fixation-cross"">+</div>",,,,,,,,,,,,,,,,,,,,
html-keyboard-response,83,175237,0.0-6.0-5.0-0.0-1.5,VKnu0IjqtwkIeIw2M08Q,all,,L0RcsSDQctmciE9AckgAteJIbn,UIG5086UvrNYN3tL7cNflMcX09,dn_main_trial_version_A,,,,,,,1668.0,False,78.0,"<div id=""lottery_labels_container"">
                            <div>Lottery 1</div>
                            <div>Lottery 2</div>
                        </div>
                        <div id=""lottery_text_desc_container"">
                            <div id=""lottery_left_text"" class=""lottery_text""></div>
                            <div id=""lottery_right_text"" class=""lottery_text""></div>
                        </div>
                        <div id=""lotteries_container"">
                            <div id=""lottery_left_parent"" class=""lottery_parent"" "">
                                <div id=""lottery_left"" class=""lottery""></div>
                            </div>
                            <div id=""lottery_right_parent"" class=""lottery_parent"" "">
                                <div id=""lottery_right"" class=""lottery""></div>
                            </div>
                        </div>
                        <div id=""lottery_choices"">
                            <div class=""lottery_choice""><span>Draw from Lottery 1</span><br><span><i>left arrow</i></span></div>
                            <div class=""lottery_choice""><span>Draw from Lottery 2</span><br><span><i>right arrow</i></span></div>
                        </div>
                ",arrowright,True,0.0,5.0,B,harmony,both,both,small,large,0.2,0.26,10.0,400.0,2.0,104.0,8.0,296.0,right,silver
html-keyboard-response,84,176252,0.0-6.0-5.0-0.0-2.5,VKnu0IjqtwkIeIw2M08Q,all,,L0RcsSDQctmciE9AckgAteJIbn,UIG5086UvrNYN3tL7cNflMcX09,dn_trial_feedback,,,,,,,,,,"<p style=""font-size: 3em; color: white; line-height: 2em;"">You drew a <b>silver coin</b>.</p>",,,,,,,,,,,,,,,,,,,,
html-keyboard-response,85,176566,0.0-6.0-5.0-0.0-0.6,VKnu0IjqtwkIeIw2M08Q,all,,L0RcsSDQctmciE9AckgAteJIbn,UIG5086UvrNYN3tL7cNflMcX09,fixation_cross,,,,,,,,,,"<div class=""fixation-cross"">+</div>",,,,,,,,,,,,,,,,,,,,
html-keyboard-response,86,177973,0.0-6.0-5.0-0.0-1.6,VKnu0IjqtwkIeIw2M08Q,all,,L0RcsSDQctmciE9AckgAteJIbn,UIG5086UvrNYN3tL7cNflMcX09,dn_main_trial_version_A,,,,,,,1406.0,False,81.0,"<div id=""lottery_labels_container"">
                            <div>Lottery 1</div>
                            <div>Lottery 2</div>
                        </div>
                        <div id=""lottery_text_desc_container"">
                            <div id=""lottery_left_text"" class=""lottery_text""></div>
                            <div id=""lottery_right_text"" class=""lottery_text""></div>
                        </div>
                        <div id=""lotteries_container"">
                            <div id=""lottery_left_parent"" class=""lottery_parent"" "">
                                <div id=""lottery_left"" class=""lottery""></div>
                            </div>
                            <div id=""lottery_right_parent"" class=""lottery_parent"" "">
                                <div id=""lottery_right"" class=""lottery""></div>
                            </div>
                        </div>
                        <div id=""lottery_choices"">
                            <div class=""lottery_choice""><span>Draw from Lottery 1</span><br><span><i>left arrow</i></span></div>
                            <div class=""lottery_choice""><span>Draw from Lottery 2</span><br><span><i>right arrow</i></span></div>
                        </div>
                ",arrowleft,True,0.0,6.0,B,conflict,both,both,small,large,0.2,0.15,10.0,400.0,2.0,60.0,8.0,340.0,left,gold
html-keyboard-response,87,178986,0.0-6.0-5.0-0.0-2.6,VKnu0IjqtwkIeIw2M08Q,all,,L0RcsSDQctmciE9AckgAteJIbn,UIG5086UvrNYN3tL7cNflMcX09,dn_trial_feedback,,,,,,,,,,"<p style=""font-size: 3em; color: gold; line-height: 2em;"">You drew a <b>gold coin</b>.</p>",,,,,,,,,,,,,,,,,,,,
html-keyboard-response,88,179300,0.0-6.0-5.0-0.0-0.7,VKnu0IjqtwkIeIw2M08Q,all,,L0RcsSDQctmciE9AckgAteJIbn,UIG5086UvrNYN3tL7cNflMcX09,fixation_cross,,,,,,,,,,"<div class=""fixation-cross"">+</div>",,,,,,,,,,,,,,,,,,,,
html-keyboard-response,89,182071,0.0-6.0-5.0-0.0-1.7,VKnu0IjqtwkIeIw2M08Q,all,,L0RcsSDQctmciE9AckgAteJIbn,UIG5086UvrNYN3tL7cNflMcX09,dn_main_trial_version_A,,,,,,,2783.0,False,85.0,"<div id=""lottery_labels_container"">
                            <div>Lottery 1</div>
                            <div>Lottery 2</div>
                        </div>
                        <div id=""lottery_text_desc_container"">
                            <div id=""lottery_left_text"" class=""lottery_text""></div>
                            <div id=""lottery_right_text"" class=""lottery_text""></div>
                        </div>
                        <div id=""lotteries_container"">
                            <div id=""lottery_left_parent"" class=""lottery_parent"" "">
                                <div id=""lottery_left"" class=""lottery""></div>
                            </div>
                            <div id=""lottery_right_parent"" class=""lottery_parent"" "">
                                <div id=""lottery_right"" class=""lottery""></div>
                            </div>
                        </div>
                        <div id=""lottery_choices"">
                            <div class=""lottery_choice""><span>Draw from Lottery 1</span><br><span><i>left arrow</i></span></div>
                            <div class=""lottery_choice""><span>Draw from Lottery 2</span><br><span><i>right arrow</i></span></div>
                        </div>
                ",arrowright,True,0.0,7.0,B,conflict,both,both,large,small,0.07,0.1,400.0,10.0,28.0,1.0,372.0,9.0,right,silver
html-keyboard-response,90,183079,0.0-6.0-5.0-0.0-2.7,VKnu0IjqtwkIeIw2M08Q,all,,L0RcsSDQctmciE9AckgAteJIbn,UIG5086UvrNYN3tL7cNflMcX09,dn_trial_feedback,,,,,,,,,,"<p style=""font-size: 3em; color: white; line-height: 2em;"">You drew a <b>silver coin</b>.</p>",,,,,,,,,,,,,,,,,,,,
instructions,91,185541,0.0-6.0-6.0,VKnu0IjqtwkIeIw2M08Q,all,,L0RcsSDQctmciE9AckgAteJIbn,UIG5086UvrNYN3tL7cNflMcX09,dn_test_trials_instructions,,,,,,"[{'page_index': 0, 'viewing_time': 2461}]",2461.0,False,87.0,,,,,,,,,,,,,,,,,,,,,
html-keyboard-response,92,185856,0.0-6.0-7.0-0.0-0.0,VKnu0IjqtwkIeIw2M08Q,all,,L0RcsSDQctmciE9AckgAteJIbn,UIG5086UvrNYN3tL7cNflMcX09,fixation_cross,,,,,,,,,,"<div class=""fixation-cross"">+</div>",,,,,,,,,,,,,,,,,,,,
html-keyboard-response,93,187170,0.0-6.0-7.0-0.0-1.0,VKnu0IjqtwkIeIw2M08Q,all,,L0RcsSDQctmciE9AckgAteJIbn,UIG5086UvrNYN3tL7cNflMcX09,dn_main_trial_version_A,,,,,,,1312.0,False,89.0,"<div id=""lottery_labels_container"">
                            <div>Lottery 1</div>
                            <div>Lottery 2</div>
                        </div>
                        <div id=""lottery_text_desc_container"">
                            <div id=""lottery_left_text"" class=""lottery_text""></div>
                            <div id=""lottery_right_text"" class=""lottery_text""></div>
                        </div>
                        <div id=""lotteries_container"">
                            <div id=""lottery_left_parent"" class=""lottery_parent"" "">
                                <div id=""lottery_left"" class=""lottery""></div>
                            </div>
                            <div id=""lottery_right_parent"" class=""lottery_parent"" "">
                                <div id=""lottery_right"" class=""lottery""></div>
                            </div>
                        </div>
                        <div id=""lottery_choices"">
                            <div class=""lottery_choice""><span>Draw from Lottery 1</span><br><span><i>left arrow</i></span></div>
                            <div class=""lottery_choice""><span>Draw from Lottery 2</span><br><span><i>right arrow</i></span></div>
                        </div>
                ",arrowleft,False,0.0,0.0,B,conflict,both,both,small,large,0.1,0.07,10.0,400.0,1.0,28.0,9.0,372.0,left,silver
html-keyboard-response,94,188185,0.0-6.0-7.0-0.0-2.0,VKnu0IjqtwkIeIw2M08Q,all,,L0RcsSDQctmciE9AckgAteJIbn,UIG5086UvrNYN3tL7cNflMcX09,dn_trial_feedback,,,,,,,,,,"<p style=""font-size: 3em; color: white; line-height: 2em;"">You drew a <b>silver coin</b>.</p>",,,,,,,,,,,,,,,,,,,,
html-keyboard-response,95,188499,0.0-6.0-7.0-0.0-0.1,VKnu0IjqtwkIeIw2M08Q,all,,L0RcsSDQctmciE9AckgAteJIbn,UIG5086UvrNYN3tL7cNflMcX09,fixation_cross,,,,,,,,,,"<div class=""fixation-cross"">+</div>",,,,,,,,,,,,,,,,,,,,
html-keyboard-response,96,190378,0.0-6.0-7.0-0.0-1.1,VKnu0IjqtwkIeIw2M08Q,all,,L0RcsSDQctmciE9AckgAteJIbn,UIG5086UvrNYN3tL7cNflMcX09,dn_main_trial_version_A,,,,,,,1877.0,False,92.0,"<div id=""lottery_labels_container"">
                            <div>Lottery 1</div>
                            <div>Lottery 2</div>
                        </div>
                        <div id=""lottery_text_desc_container"">
                            <div id=""lottery_left_text"" class=""lottery_text""></div>
                            <div id=""lottery_right_text"" class=""lottery_text""></div>
                        </div>
                        <div id=""lotteries_container"">
                            <div id=""lottery_left_parent"" class=""lottery_parent"" "">
                                <div id=""lottery_left"" class=""lottery""></div>
                            </div>
                            <div id=""lottery_right_parent"" class=""lottery_parent"" "">
                                <div id=""lottery_right"" class=""lottery""></div>
                            </div>
                        </div>
                        <div id=""lottery_choices"">
                            <div class=""lottery_choice""><span>Draw from Lottery 1</span><br><span><i>left arrow</i></span></div>
                            <div class=""lottery_choice""><span>Draw from Lottery 2</span><br><span><i>right arrow</i></span></div>
                        </div>
                ",arrowleft,False,0.0,1.0,B,harmony,both,both,large,small,0.14,0.1,400.0,10.0,56.0,1.0,344.0,9.0,left,silver
html-keyboard-response,97,191388,0.0-6.0-7.0-0.0-2.1,VKnu0IjqtwkIeIw2M08Q,all,,L0RcsSDQctmciE9AckgAteJIbn,UIG5086UvrNYN3tL7cNflMcX09,dn_trial_feedback,,,,,,,,,,"<p style=""font-size: 3em; color: white; line-height: 2em;"">You drew a <b>silver coin</b>.</p>",,,,,,,,,,,,,,,,,,,,
html-keyboard-response,98,191695,0.0-6.0-7.0-0.0-0.2,VKnu0IjqtwkIeIw2M08Q,all,,L0RcsSDQctmciE9AckgAteJIbn,UIG5086UvrNYN3tL7cNflMcX09,fixation_cross,,,,,,,,,,"<div class=""fixation-cross"">+</div>",,,,,,,,,,,,,,,,,,,,
html-keyboard-response,99,195625,0.0-6.0-7.0-0.0-1.2,VKnu0IjqtwkIeIw2M08Q,all,,L0RcsSDQctmciE9AckgAteJIbn,UIG5086UvrNYN3tL7cNflMcX09,dn_main_trial_version_A,,,,,,,3928.0,False,95.0,"<div id=""lottery_labels_container"">
                            <div>Lottery 1</div>
                            <div>Lottery 2</div>
                        </div>
                        <div id=""lottery_text_desc_container"">
                            <div id=""lottery_left_text"" class=""lottery_text""></div>
                            <div id=""lottery_right_text"" class=""lottery_text""></div>
                        </div>
                        <div id=""lotteries_container"">
                            <div id=""lottery_left_parent"" class=""lottery_parent"" "">
                                <div id=""lottery_left"" class=""lottery""></div>
                            </div>
                            <div id=""lottery_right_parent"" class=""lottery_parent"" "">
                                <div id=""lottery_right"" class=""lottery""></div>
                            </div>
                        </div>
                        <div id=""lottery_choices"">
                            <div class=""lottery_choice""><span>Draw from Lottery 1</span><br><span><i>left arrow</i></span></div>
                            <div class=""lottery_choice""><span>Draw from Lottery 2</span><br><span><i>right arrow</i></span></div>
                        </div>
                ",arrowleft,False,0.0,2.0,B,harmony,both,both,large,small,0.3399999999999999,0.3,400.0,10.0,136.0,3.0,264.0,7.0,left,silver
html-keyboard-response,100,196637,0.0-6.0-7.0-0.0-2.2,VKnu0IjqtwkIeIw2M08Q,all,,L0RcsSDQctmciE9AckgAteJIbn,UIG5086UvrNYN3tL7cNflMcX09,dn_trial_feedback,,,,,,,,,,"<p style=""font-size: 3em; color: white; line-height: 2em;"">You drew a <b>silver coin</b>.</p>",,,,,,,,,,,,,,,,,,,,
html-keyboard-response,101,196938,0.0-6.0-7.0-0.0-0.3,VKnu0IjqtwkIeIw2M08Q,all,,L0RcsSDQctmciE9AckgAteJIbn,UIG5086UvrNYN3tL7cNflMcX09,fixation_cross,,,,,,,,,,"<div class=""fixation-cross"">+</div>",,,,,,,,,,,,,,,,,,,,
html-keyboard-response,102,198458,0.0-6.0-7.0-0.0-1.3,VKnu0IjqtwkIeIw2M08Q,all,,L0RcsSDQctmciE9AckgAteJIbn,UIG5086UvrNYN3tL7cNflMcX09,dn_main_trial_version_A,,,,,,,1519.0,False,98.0,"<div id=""lottery_labels_container"">
                            <div>Lottery 1</div>
                            <div>Lottery 2</div>
                        </div>
                        <div id=""lottery_text_desc_container"">
                            <div id=""lottery_left_text"" class=""lottery_text""></div>
                            <div id=""lottery_right_text"" class=""lottery_text""></div>
                        </div>
                        <div id=""lotteries_container"">
                            <div id=""lottery_left_parent"" class=""lottery_parent"" "">
                                <div id=""lottery_left"" class=""lottery""></div>
                            </div>
                            <div id=""lottery_right_parent"" class=""lottery_parent"" "">
                                <div id=""lottery_right"" class=""lottery""></div>
                            </div>
                        </div>
                        <div id=""lottery_choices"">
                            <div class=""lottery_choice""><span>Draw from Lottery 1</span><br><span><i>left arrow</i></span></div>
                            <div class=""lottery_choice""><span>Draw from Lottery 2</span><br><span><i>right arrow</i></span></div>
                        </div>
                ",arrowright,False,0.0,3.0,B,harmony,both,both,small,large,0.3,0.38,10.0,400.0,3.0,152.0,7.0,248.0,right,gold
html-keyboard-response,103,199463,0.0-6.0-7.0-0.0-2.3,VKnu0IjqtwkIeIw2M08Q,all,,L0RcsSDQctmciE9AckgAteJIbn,UIG5086UvrNYN3tL7cNflMcX09,dn_trial_feedback,,,,,,,,,,"<p style=""font-size: 3em; color: gold; line-height: 2em;"">You drew a <b>gold coin</b>.</p>",,,,,,,,,,,,,,,,,,,,
html-keyboard-response,104,199777,0.0-6.0-7.0-0.0-0.4,VKnu0IjqtwkIeIw2M08Q,all,,L0RcsSDQctmciE9AckgAteJIbn,UIG5086UvrNYN3tL7cNflMcX09,fixation_cross,,,,,,,,,,"<div class=""fixation-cross"">+</div>",,,,,,,,,,,,,,,,,,,,
html-keyboard-response,105,202071,0.0-6.0-7.0-0.0-1.4,VKnu0IjqtwkIeIw2M08Q,all,,L0RcsSDQctmciE9AckgAteJIbn,UIG5086UvrNYN3tL7cNflMcX09,dn_main_trial_version_A,,,,,,,2293.0,False,102.0,"<div id=""lottery_labels_container"">
                            <div>Lottery 1</div>
                            <div>Lottery 2</div>
                        </div>
                        <div id=""lottery_text_desc_container"">
                            <div id=""lottery_left_text"" class=""lottery_text""></div>
                            <div id=""lottery_right_text"" class=""lottery_text""></div>
                        </div>
                        <div id=""lotteries_container"">
                            <div id=""lottery_left_parent"" class=""lottery_parent"" "">
                                <div id=""lottery_left"" class=""lottery""></div>
                            </div>
                            <div id=""lottery_right_parent"" class=""lottery_parent"" "">
                                <div id=""lottery_right"" class=""lottery""></div>
                            </div>
                        </div>
                        <div id=""lottery_choices"">
                            <div class=""lottery_choice""><span>Draw from Lottery 1</span><br><span><i>left arrow</i></span></div>
                            <div class=""lottery_choice""><span>Draw from Lottery 2</span><br><span><i>right arrow</i></span></div>
                        </div>
                ",arrowright,False,0.0,4.0,B,conflict,both,both,large,small,0.2799999999999999,0.3,400.0,10.0,112.0,3.0,288.0,7.0,right,silver
html-keyboard-response,106,203084,0.0-6.0-7.0-0.0-2.4,VKnu0IjqtwkIeIw2M08Q,all,,L0RcsSDQctmciE9AckgAteJIbn,UIG5086UvrNYN3tL7cNflMcX09,dn_trial_feedback,,,,,,,,,,"<p style=""font-size: 3em; color: white; line-height: 2em;"">You drew a <b>silver coin</b>.</p>",,,,,,,,,,,,,,,,,,,,
html-keyboard-response,107,203398,0.0-6.0-7.0-0.0-0.5,VKnu0IjqtwkIeIw2M08Q,all,,L0RcsSDQctmciE9AckgAteJIbn,UIG5086UvrNYN3tL7cNflMcX09,fixation_cross,,,,,,,,,,"<div class=""fixation-cross"">+</div>",,,,,,,,,,,,,,,,,,,,
html-keyboard-response,108,204711,0.0-6.0-7.0-0.0-1.5,VKnu0IjqtwkIeIw2M08Q,all,,L0RcsSDQctmciE9AckgAteJIbn,UIG5086UvrNYN3tL7cNflMcX09,dn_main_trial_version_A,,,,,,,1311.0,False,105.0,"<div id=""lottery_labels_container"">
                            <div>Lottery 1</div>
                            <div>Lottery 2</div>
                        </div>
                        <div id=""lottery_text_desc_container"">
                            <div id=""lottery_left_text"" class=""lottery_text""></div>
                            <div id=""lottery_right_text"" class=""lottery_text""></div>
                        </div>
                        <div id=""lotteries_container"">
                            <div id=""lottery_left_parent"" class=""lottery_parent"" "">
                                <div id=""lottery_left"" class=""lottery""></div>
                            </div>
                            <div id=""lottery_right_parent"" class=""lottery_parent"" "">
                                <div id=""lottery_right"" class=""lottery""></div>
                            </div>
                        </div>
                        <div id=""lottery_choices"">
                            <div class=""lottery_choice""><span>Draw from Lottery 1</span><br><span><i>left arrow</i></span></div>
                            <div class=""lottery_choice""><span>Draw from Lottery 2</span><br><span><i>right arrow</i></span></div>
                        </div>
                ",arrowleft,False,0.0,5.0,B,conflict,both,both,small,large,0.3,0.27,10.0,400.0,3.0,108.0,7.0,292.0,left,silver
html-keyboard-response,109,205720,0.0-6.0-7.0-0.0-2.5,VKnu0IjqtwkIeIw2M08Q,all,,L0RcsSDQctmciE9AckgAteJIbn,UIG5086UvrNYN3tL7cNflMcX09,dn_trial_feedback,,,,,,,,,,"<p style=""font-size: 3em; color: white; line-height: 2em;"">You drew a <b>silver coin</b>.</p>",,,,,,,,,,,,,,,,,,,,
html-keyboard-response,110,206034,0.0-6.0-7.0-0.0-0.6,VKnu0IjqtwkIeIw2M08Q,all,,L0RcsSDQctmciE9AckgAteJIbn,UIG5086UvrNYN3tL7cNflMcX09,fixation_cross,,,,,,,,,,"<div class=""fixation-cross"">+</div>",,,,,,,,,,,,,,,,,,,,
html-keyboard-response,111,208093,0.0-6.0-7.0-0.0-1.6,VKnu0IjqtwkIeIw2M08Q,all,,L0RcsSDQctmciE9AckgAteJIbn,UIG5086UvrNYN3tL7cNflMcX09,dn_main_trial_version_A,,,,,,,2058.0,False,108.0,"<div id=""lottery_labels_container"">
                            <div>Lottery 1</div>
                            <div>Lottery 2</div>
                        </div>
                        <div id=""lottery_text_desc_container"">
                            <div id=""lottery_left_text"" class=""lottery_text""></div>
                            <div id=""lottery_right_text"" class=""lottery_text""></div>
                        </div>
                        <div id=""lotteries_container"">
                            <div id=""lottery_left_parent"" class=""lottery_parent"" "">
                                <div id=""lottery_left"" class=""lottery""></div>
                            </div>
                            <div id=""lottery_right_parent"" class=""lottery_parent"" "">
                                <div id=""lottery_right"" class=""lottery""></div>
                            </div>
                        </div>
                        <div id=""lottery_choices"">
                            <div class=""lottery_choice""><span>Draw from Lottery 1</span><br><span><i>left arrow</i></span></div>
                            <div class=""lottery_choice""><span>Draw from Lottery 2</span><br><span><i>right arrow</i></span></div>
                        </div>
                ",arrowright,False,0.0,6.0,B,harmony,both,both,small,large,0.1,0.11,10.0,400.0,1.0,44.0,9.0,356.0,right,silver
html-keyboard-response,112,209106,0.0-6.0-7.0-0.0-2.6,VKnu0IjqtwkIeIw2M08Q,all,,L0RcsSDQctmciE9AckgAteJIbn,UIG5086UvrNYN3tL7cNflMcX09,dn_trial_feedback,,,,,,,,,,"<p style=""font-size: 3em; color: white; line-height: 2em;"">You drew a <b>silver coin</b>.</p>",,,,,,,,,,,,,,,,,,,,
html-keyboard-response,113,209420,0.0-6.0-7.0-0.0-0.7,VKnu0IjqtwkIeIw2M08Q,all,,L0RcsSDQctmciE9AckgAteJIbn,UIG5086UvrNYN3tL7cNflMcX09,fixation_cross,,,,,,,,,,"<div class=""fixation-cross"">+</div>",,,,,,,,,,,,,,,,,,,,
html-keyboard-response,114,214688,0.0-6.0-7.0-0.0-1.7,VKnu0IjqtwkIeIw2M08Q,all,,L0RcsSDQctmciE9AckgAteJIbn,UIG5086UvrNYN3tL7cNflMcX09,dn_main_trial_version_A,,,,,,,5266.0,False,111.0,"<div id=""lottery_labels_container"">
                            <div>Lottery 1</div>
                            <div>Lottery 2</div>
                        </div>
                        <div id=""lottery_text_desc_container"">
                            <div id=""lottery_left_text"" class=""lottery_text""></div>
                            <div id=""lottery_right_text"" class=""lottery_text""></div>
                        </div>
                        <div id=""lotteries_container"">
                            <div id=""lottery_left_parent"" class=""lottery_parent"" "">
                                <div id=""lottery_left"" class=""lottery""></div>
                            </div>
                            <div id=""lottery_right_parent"" class=""lottery_parent"" "">
                                <div id=""lottery_right"" class=""lottery""></div>
                            </div>
                        </div>
                        <div id=""lottery_choices"">
                            <div class=""lottery_choice""><span>Draw from Lottery 1</span><br><span><i>left arrow</i></span></div>
                            <div class=""lottery_choice""><span>Draw from Lottery 2</span><br><span><i>right arrow</i></span></div>
                        </div>
                ",arrowleft,False,0.0,7.0,B,harmony,both,both,large,small,0.35,0.3,400.0,10.0,140.0,3.0,260.0,7.0,left,silver
html-keyboard-response,115,215697,0.0-6.0-7.0-0.0-2.7,VKnu0IjqtwkIeIw2M08Q,all,,L0RcsSDQctmciE9AckgAteJIbn,UIG5086UvrNYN3tL7cNflMcX09,dn_trial_feedback,,,,,,,,,,"<p style=""font-size: 3em; color: white; line-height: 2em;"">You drew a <b>silver coin</b>.</p>",,,,,,,,,,,,,,,,,,,,
call-function,116,215698,0.0-6.0-8.0,VKnu0IjqtwkIeIw2M08Q,all,,L0RcsSDQctmciE9AckgAteJIbn,UIG5086UvrNYN3tL7cNflMcX09,,,,,,,,,,,,,,,,,,,,,,,,,,,,,,,
html-button-response,117,219744,0.0-6.0-9.0,VKnu0IjqtwkIeIw2M08Q,all,,L0RcsSDQctmciE9AckgAteJIbn,UIG5086UvrNYN3tL7cNflMcX09,feedback_Denominator Neglect_B,,,,,,,4045.0,,,"
                    <p class=""instructions-title"">Feedback?</p>
                    <p>If something went wrong during the last task or you think we can improve it, please leave any and all comments you have here.</p>
                    <div style=""margin-bottom: 3vh"">
                        <textarea id=""task_feedback"" style=""width: 50vw; height: 15vh;""></textarea>
                    </div>
                ",,,,,,,,,,,,,,,,,,,,
call-function,118,219747,0.0-6.0-10.0,VKnu0IjqtwkIeIw2M08Q,all,,L0RcsSDQctmciE9AckgAteJIbn,UIG5086UvrNYN3tL7cNflMcX09,,,,,,,,,,,,,,,,,,,,,,,,,,,,,,,
html-keyboard-response,119,219748,0.0-6.0-12.0,VKnu0IjqtwkIeIw2M08Q,all,,L0RcsSDQctmciE9AckgAteJIbn,UIG5086UvrNYN3tL7cNflMcX09,async_data_save,,,,Denominator Neglect_B__completed,3.0,,,,,,,,,,,,,,,,,,,,,,,,,
call-function,120,219748,0.0-8.0,VKnu0IjqtwkIeIw2M08Q,all,,L0RcsSDQctmciE9AckgAteJIbn,UIG5086UvrNYN3tL7cNflMcX09,,,,,,,,,,,,,,,,,,,,,,,,,,,,,,,
html-keyboard-response,121,219748,0.0-9.0,VKnu0IjqtwkIeIw2M08Q,all,,L0RcsSDQctmciE9AckgAteJIbn,UIG5086UvrNYN3tL7cNflMcX09,async_data_save,,,,experiment__completed,4.0,,,,,,,,,,,,,,,,,,,,,,,,,
