trial_type,trial_index,time_elapsed,internal_node_id,subject_id,form,wave,session_id,session_restart_id,trial_name,experiment_parameters,task_denominator_neglect_version_A,task_denominator_neglect_version_B,data_checkpoint,data_checkpoint_ind,view_history,rt,custom_timer_ended_trial,interval_id,stimulus,response,pt_trial,block,trial,task_version,choice_type,left_lottery_display_type,right_lottery_display_type,left_lottery_type,right_lottery_type,left_lottery_gold_prop,right_lottery_gold_prop,left_lottery_total_coins,right_lottery_total_coins,left_lottery_gold_coins,right_lottery_gold_coins,left_lottery_silver_coins,right_lottery_silver_coins,selected_lottery,coin_drawn
call-function,0,1,0.0-0.0,2m993eAu0zpJKQ3i03jO,all,,RLx8JQkEuvYRERezyZEQ0YfghQ,UTrk4JAKq5lUxvdT8J6OEFCIc7,,,,,,,,,,,,,,,,,,,,,,,,,,,,,,,
call-function,1,2,0.0-1.0,2m993eAu0zpJKQ3i03jO,all,,RLx8JQkEuvYRERezyZEQ0YfghQ,UTrk4JAKq5lUxvdT8J6OEFCIc7,session_parameters,"{'INSTRUCTIONS_ONLY': False, 'IGNORE_VALIDATION': False, 'SKIP_INTRO_TRIALS': True, 'TEST_EXCLUSION_CRITERIA': False, 'SIMULATE': False, 'SIMULATE_TRIAL_DURATION': 250}","{'SHOW_TASK': True, 'SHORT_VERSION': True, 'TASK_ORDER_INDEX': 14, 'USE_ANCHOR_VERSION': False, 'TASK_VERSION': 'A', 'TRIAL_CHOICE_TYPES': ['conflict', 'harmony'], 'SMALL_LOTTERY_GOLD_COIN_PROPS': [0.1, 0.2, 0.3], 'LARGE_LOTTERY_GOLD_COIN_PROP_RANGE_DIFF': [0.01, 0.02, 0.03, 0.04, 0.05, 0.06, 0.07, 0.08], 'DENOMINATOR_DISPLAY_TYPES': {'task_version_A': [{'small': 'text', 'large': 'text'}, {'small': 'array', 'large': 'array'}, {'small': 'text', 'large': 'array'}, {'small': 'array', 'large': 'text'}], 'task_version_B': [{'small': 'both', 'large': 'both'}]}, 'LOTTERY_TOTAL_COINS': {'small': 10, 'large': 400}, 'TRIAL_TIME_LIMIT': 5000, 'GOLD_COINS_COUNTER': 0, 'ANCHOR_FORM_DATA': {'task_version_A': {'left_lottery_types': ['small', 'large', 'large', 'large', 'small', 'small', 'large', 'small', 'small', 'large', 'small', 'large', 'small', 'large', 'large', 'small', 'large', 'large', 'small', 'large', 'small', 'small', 'large', 'small', 'large', 'small', 'large', 'large', 'small', 'small', 'small', 'small', 'small', 'small', 'small', 'large', 'small', 'large', 'large', 'small', 'large', 'small', 'small', 'large', 'large', 'large', 'large', 'large'], 'denominator_display_types': {'conflict': [{'small': 'text', 'large': 'text'}, {'small': 'text', 'large': 'array'}, {'small': 'array', 'large': 'array'}, {'small': 'array', 'large': 'array'}, {'small': 'text', 'large': 'array'}, {'small': 'array', 'large': 'array'}, {'small': 'array', 'large': 'text'}, {'small': 'array', 'large': 'text'}, {'small': 'array', 'large': 'array'}, {'small': 'array', 'large': 'array'}, {'small': 'text', 'large': 'array'}, {'small': 'array', 'large': 'text'}, {'small': 'array', 'large': 'text'}, {'small': 'text', 'large': 'array'}, {'small': 'array', 'large': 'array'}, {'small': 'text', 'large': 'text'}, {'small': 'text', 'large': 'text'}, {'small': 'text', 'large': 'text'}, {'small': 'text', 'large': 'array'}, {'small': 'text', 'large': 'text'}, {'small': 'array', 'large': 'text'}, {'small': 'array', 'large': 'text'}, {'small': 'text', 'large': 'array'}, {'small': 'text', 'large': 'text'}], 'harmony': [{'small': 'text', 'large': 'text'}, {'small': 'array', 'large': 'text'}, {'small': 'text', 'large': 'text'}, {'small': 'array', 'large': 'text'}, {'small': 'array', 'large': 'text'}, {'small': 'array', 'large': 'text'}, {'small': 'array', 'large': 'array'}, {'small': 'array', 'large': 'array'}, {'small': 'text', 'large': 'text'}, {'small': 'text', 'large': 'array'}, {'small': 'text', 'large': 'array'}, {'small': 'text', 'large': 'text'}, {'small': 'array', 'large': 'array'}, {'small': 'text', 'large': 'array'}, {'small': 'array', 'large': 'array'}, {'small': 'array', 'large': 'text'}, {'small': 'array', 'large': 'array'}, {'small': 'text', 'large': 'text'}, {'small': 'text', 'large': 'array'}, {'small': 'text', 'large': 'array'}, {'small': 'array', 'large': 'text'}, {'small': 'text', 'large': 'text'}, {'small': 'array', 'large': 'array'}, {'small': 'text', 'large': 'array'}]}, 'left_lottery_gold_prop': [0.2, 0.29, 0.27, 0.28, 0.2, 0.3, 0.07, 0.3, 0.1, 0.36, 0.1, 0.28, 0.1, 0.14, 0.18, 0.2, 0.26, 0.25, 0.2, 0.13, 0.2, 0.3, 0.18, 0.2, 0.12, 0.1, 0.25, 0.23, 0.2, 0.3, 0.2, 0.3, 0.3, 0.2, 0.1, 0.16, 0.1, 0.31, 0.27, 0.1, 0.19, 0.1, 0.3, 0.26, 0.05, 0.34, 0.06, 0.24], 'right_lottery_gold_prop': [0.22, 0.3, 0.2, 0.2, 0.13, 0.37, 0.1, 0.24, 0.03, 0.3, 0.09, 0.3, 0.15, 0.1, 0.1, 0.15, 0.2, 0.3, 0.21, 0.1, 0.12, 0.38, 0.2, 0.14, 0.1, 0.17, 0.2, 0.3, 0.23, 0.32, 0.17, 0.22, 0.35, 0.16, 0.02, 0.1, 0.11, 0.3, 0.3, 0.04, 0.2, 0.08, 0.33, 0.3, 0.1, 0.3, 0.1, 0.2], 'left_lottery_total_coins': [10, 400, 400, 400, 10, 10, 400, 10, 10, 400, 10, 400, 10, 400, 400, 10, 400, 400, 10, 400, 10, 10, 400, 10, 400, 10, 400, 400, 10, 10, 10, 10, 10, 10, 10, 400, 10, 400, 400, 10, 400, 10, 10, 400, 400, 400, 400, 400], 'right_lottery_total_coins': [400, 10, 10, 10, 400, 400, 10, 400, 400, 10, 400, 10, 400, 10, 10, 400, 10, 10, 400, 10, 400, 400, 10, 400, 10, 400, 10, 10, 400, 400, 400, 400, 400, 400, 400, 10, 400, 10, 10, 400, 10, 400, 400, 10, 10, 10, 10, 10]}, 'task_version_B': {'left_lottery_types': ['small', 'small', 'large', 'large', 'small', 'small', 'large', 'small', 'small', 'large', 'large', 'small', 'large', 'small', 'large', 'large', 'large', 'small', 'large', 'small', 'small', 'large', 'large', 'small', 'small', 'large', 'large', 'small', 'small', 'large', 'large', 'small', 'small', 'large', 'small', 'large', 'small', 'large', 'small', 'large', 'small', 'small', 'small', 'large', 'large', 'large', 'small', 'large'], 'denominator_display_types': {'conflict': [{'small': 'both', 'large': 'both'}, {'small': 'both', 'large': 'both'}, {'small': 'both', 'large': 'both'}, {'small': 'both', 'large': 'both'}, {'small': 'both', 'large': 'both'}, {'small': 'both', 'large': 'both'}, {'small': 'both', 'large': 'both'}, {'small': 'both', 'large': 'both'}, {'small': 'both', 'large': 'both'}, {'small': 'both', 'large': 'both'}, {'small': 'both', 'large': 'both'}, {'small': 'both', 'large': 'both'}, {'small': 'both', 'large': 'both'}, {'small': 'both', 'large': 'both'}, {'small': 'both', 'large': 'both'}, {'small': 'both', 'large': 'both'}, {'small': 'both', 'large': 'both'}, {'small': 'both', 'large': 'both'}, {'small': 'both', 'large': 'both'}, {'small': 'both', 'large': 'both'}, {'small': 'both', 'large': 'both'}, {'small': 'both', 'large': 'both'}, {'small': 'both', 'large': 'both'}, {'small': 'both', 'large': 'both'}], 'harmony': [{'small': 'both', 'large': 'both'}, {'small': 'both', 'large': 'both'}, {'small': 'both', 'large': 'both'}, {'small': 'both', 'large': 'both'}, {'small': 'both', 'large': 'both'}, {'small': 'both', 'large': 'both'}, {'small': 'both', 'large': 'both'}, {'small': 'both', 'large': 'both'}, {'small': 'both', 'large': 'both'}, {'small': 'both', 'large': 'both'}, {'small': 'both', 'large': 'both'}, {'small': 'both', 'large': 'both'}, {'small': 'both', 'large': 'both'}, {'small': 'both', 'large': 'both'}, {'small': 'both', 'large': 'both'}, {'small': 'both', 'large': 'both'}, {'small': 'both', 'large': 'both'}, {'small': 'both', 'large': 'both'}, {'small': 'both', 'large': 'both'}, {'small': 'both', 'large': 'both'}, {'small': 'both', 'large': 'both'}, {'small': 'both', 'large': 'both'}, {'small': 'both', 'large': 'both'}, {'small': 'both', 'large': 'both'}]}, 'left_lottery_gold_prop': [0.2, 0.3, 0.24, 0.14, 0.1, 0.2, 0.35, 0.1, 0.3, 0.07, 0.09, 0.3, 0.18, 0.1, 0.34, 0.22, 0.32, 0.3, 0.27, 0.1, 0.3, 0.08, 0.15, 0.1, 0.1, 0.25, 0.29, 0.1, 0.2, 0.18, 0.16, 0.3, 0.2, 0.33, 0.3, 0.38, 0.2, 0.17, 0.2, 0.26, 0.2, 0.3, 0.2, 0.02, 0.04, 0.12, 0.1, 0.27], 'right_lottery_gold_prop': [0.13, 0.25, 0.3, 0.1, 0.03, 0.23, 0.3, 0.05, 0.31, 0.1, 0.1, 0.22, 0.2, 0.16, 0.3, 0.2, 0.3, 0.26, 0.3, 0.15, 0.23, 0.1, 0.2, 0.11, 0.13, 0.2, 0.3, 0.12, 0.14, 0.1, 0.2, 0.37, 0.19, 0.3, 0.36, 0.3, 0.24, 0.1, 0.21, 0.2, 0.28, 0.28, 0.17, 0.1, 0.1, 0.2, 0.06, 0.2], 'left_lottery_total_coins': [10, 10, 400, 400, 10, 10, 400, 10, 10, 400, 400, 10, 400, 10, 400, 400, 400, 10, 400, 10, 10, 400, 400, 10, 10, 400, 400, 10, 10, 400, 400, 10, 10, 400, 10, 400, 10, 400, 10, 400, 10, 10, 10, 400, 400, 400, 10, 400], 'right_lottery_total_coins': [400, 400, 10, 10, 400, 400, 10, 400, 400, 10, 10, 400, 10, 400, 10, 10, 10, 400, 10, 400, 400, 10, 10, 400, 400, 10, 10, 400, 400, 10, 10, 400, 400, 10, 400, 10, 400, 10, 400, 10, 400, 400, 400, 10, 10, 10, 400, 10]}}, 'PT_TRIALS_N': 8, 'PT_TRIALS_PER_BLOCK': 8, 'PT_BLOCKS': 1, 'TEST_TRIALS_N': 8, 'TEST_TRIALS_PER_BLOCK': 8, 'TEST_BLOCKS': 1}","{'SHOW_TASK': True, 'SHORT_VERSION': True, 'TASK_ORDER_INDEX': 15, 'USE_ANCHOR_VERSION': False, 'TASK_VERSION': 'B', 'TRIAL_CHOICE_TYPES': ['conflict', 'harmony'], 'SMALL_LOTTERY_GOLD_COIN_PROPS': [0.1, 0.2, 0.3], 'LARGE_LOTTERY_GOLD_COIN_PROP_RANGE_DIFF': [0.01, 0.02, 0.03, 0.04, 0.05, 0.06, 0.07, 0.08], 'DENOMINATOR_DISPLAY_TYPES': {'task_version_A': [{'small': 'text', 'large': 'text'}, {'small': 'array', 'large': 'array'}, {'small': 'text', 'large': 'array'}, {'small': 'array', 'large': 'text'}], 'task_version_B': [{'small': 'both', 'large': 'both'}]}, 'LOTTERY_TOTAL_COINS': {'small': 10, 'large': 400}, 'TRIAL_TIME_LIMIT': 5000, 'GOLD_COINS_COUNTER': 0, 'ANCHOR_FORM_DATA': {'task_version_A': {'left_lottery_types': ['small', 'large', 'large', 'large', 'small', 'small', 'large', 'small', 'small', 'large', 'small', 'large', 'small', 'large', 'large', 'small', 'large', 'large', 'small', 'large', 'small', 'small', 'large', 'small', 'large', 'small', 'large', 'large', 'small', 'small', 'small', 'small', 'small', 'small', 'small', 'large', 'small', 'large', 'large', 'small', 'large', 'small', 'small', 'large', 'large', 'large', 'large', 'large'], 'denominator_display_types': {'conflict': [{'small': 'text', 'large': 'text'}, {'small': 'text', 'large': 'array'}, {'small': 'array', 'large': 'array'}, {'small': 'array', 'large': 'array'}, {'small': 'text', 'large': 'array'}, {'small': 'array', 'large': 'array'}, {'small': 'array', 'large': 'text'}, {'small': 'array', 'large': 'text'}, {'small': 'array', 'large': 'array'}, {'small': 'array', 'large': 'array'}, {'small': 'text', 'large': 'array'}, {'small': 'array', 'large': 'text'}, {'small': 'array', 'large': 'text'}, {'small': 'text', 'large': 'array'}, {'small': 'array', 'large': 'array'}, {'small': 'text', 'large': 'text'}, {'small': 'text', 'large': 'text'}, {'small': 'text', 'large': 'text'}, {'small': 'text', 'large': 'array'}, {'small': 'text', 'large': 'text'}, {'small': 'array', 'large': 'text'}, {'small': 'array', 'large': 'text'}, {'small': 'text', 'large': 'array'}, {'small': 'text', 'large': 'text'}], 'harmony': [{'small': 'text', 'large': 'text'}, {'small': 'array', 'large': 'text'}, {'small': 'text', 'large': 'text'}, {'small': 'array', 'large': 'text'}, {'small': 'array', 'large': 'text'}, {'small': 'array', 'large': 'text'}, {'small': 'array', 'large': 'array'}, {'small': 'array', 'large': 'array'}, {'small': 'text', 'large': 'text'}, {'small': 'text', 'large': 'array'}, {'small': 'text', 'large': 'array'}, {'small': 'text', 'large': 'text'}, {'small': 'array', 'large': 'array'}, {'small': 'text', 'large': 'array'}, {'small': 'array', 'large': 'array'}, {'small': 'array', 'large': 'text'}, {'small': 'array', 'large': 'array'}, {'small': 'text', 'large': 'text'}, {'small': 'text', 'large': 'array'}, {'small': 'text', 'large': 'array'}, {'small': 'array', 'large': 'text'}, {'small': 'text', 'large': 'text'}, {'small': 'array', 'large': 'array'}, {'small': 'text', 'large': 'array'}]}, 'left_lottery_gold_prop': [0.2, 0.29, 0.27, 0.28, 0.2, 0.3, 0.07, 0.3, 0.1, 0.36, 0.1, 0.28, 0.1, 0.14, 0.18, 0.2, 0.26, 0.25, 0.2, 0.13, 0.2, 0.3, 0.18, 0.2, 0.12, 0.1, 0.25, 0.23, 0.2, 0.3, 0.2, 0.3, 0.3, 0.2, 0.1, 0.16, 0.1, 0.31, 0.27, 0.1, 0.19, 0.1, 0.3, 0.26, 0.05, 0.34, 0.06, 0.24], 'right_lottery_gold_prop': [0.22, 0.3, 0.2, 0.2, 0.13, 0.37, 0.1, 0.24, 0.03, 0.3, 0.09, 0.3, 0.15, 0.1, 0.1, 0.15, 0.2, 0.3, 0.21, 0.1, 0.12, 0.38, 0.2, 0.14, 0.1, 0.17, 0.2, 0.3, 0.23, 0.32, 0.17, 0.22, 0.35, 0.16, 0.02, 0.1, 0.11, 0.3, 0.3, 0.04, 0.2, 0.08, 0.33, 0.3, 0.1, 0.3, 0.1, 0.2], 'left_lottery_total_coins': [10, 400, 400, 400, 10, 10, 400, 10, 10, 400, 10, 400, 10, 400, 400, 10, 400, 400, 10, 400, 10, 10, 400, 10, 400, 10, 400, 400, 10, 10, 10, 10, 10, 10, 10, 400, 10, 400, 400, 10, 400, 10, 10, 400, 400, 400, 400, 400], 'right_lottery_total_coins': [400, 10, 10, 10, 400, 400, 10, 400, 400, 10, 400, 10, 400, 10, 10, 400, 10, 10, 400, 10, 400, 400, 10, 400, 10, 400, 10, 10, 400, 400, 400, 400, 400, 400, 400, 10, 400, 10, 10, 400, 10, 400, 400, 10, 10, 10, 10, 10]}, 'task_version_B': {'left_lottery_types': ['small', 'small', 'large', 'large', 'small', 'small', 'large', 'small', 'small', 'large', 'large', 'small', 'large', 'small', 'large', 'large', 'large', 'small', 'large', 'small', 'small', 'large', 'large', 'small', 'small', 'large', 'large', 'small', 'small', 'large', 'large', 'small', 'small', 'large', 'small', 'large', 'small', 'large', 'small', 'large', 'small', 'small', 'small', 'large', 'large', 'large', 'small', 'large'], 'denominator_display_types': {'conflict': [{'small': 'both', 'large': 'both'}, {'small': 'both', 'large': 'both'}, {'small': 'both', 'large': 'both'}, {'small': 'both', 'large': 'both'}, {'small': 'both', 'large': 'both'}, {'small': 'both', 'large': 'both'}, {'small': 'both', 'large': 'both'}, {'small': 'both', 'large': 'both'}, {'small': 'both', 'large': 'both'}, {'small': 'both', 'large': 'both'}, {'small': 'both', 'large': 'both'}, {'small': 'both', 'large': 'both'}, {'small': 'both', 'large': 'both'}, {'small': 'both', 'large': 'both'}, {'small': 'both', 'large': 'both'}, {'small': 'both', 'large': 'both'}, {'small': 'both', 'large': 'both'}, {'small': 'both', 'large': 'both'}, {'small': 'both', 'large': 'both'}, {'small': 'both', 'large': 'both'}, {'small': 'both', 'large': 'both'}, {'small': 'both', 'large': 'both'}, {'small': 'both', 'large': 'both'}, {'small': 'both', 'large': 'both'}], 'harmony': [{'small': 'both', 'large': 'both'}, {'small': 'both', 'large': 'both'}, {'small': 'both', 'large': 'both'}, {'small': 'both', 'large': 'both'}, {'small': 'both', 'large': 'both'}, {'small': 'both', 'large': 'both'}, {'small': 'both', 'large': 'both'}, {'small': 'both', 'large': 'both'}, {'small': 'both', 'large': 'both'}, {'small': 'both', 'large': 'both'}, {'small': 'both', 'large': 'both'}, {'small': 'both', 'large': 'both'}, {'small': 'both', 'large': 'both'}, {'small': 'both', 'large': 'both'}, {'small': 'both', 'large': 'both'}, {'small': 'both', 'large': 'both'}, {'small': 'both', 'large': 'both'}, {'small': 'both', 'large': 'both'}, {'small': 'both', 'large': 'both'}, {'small': 'both', 'large': 'both'}, {'small': 'both', 'large': 'both'}, {'small': 'both', 'large': 'both'}, {'small': 'both', 'large': 'both'}, {'small': 'both', 'large': 'both'}]}, 'left_lottery_gold_prop': [0.2, 0.3, 0.24, 0.14, 0.1, 0.2, 0.35, 0.1, 0.3, 0.07, 0.09, 0.3, 0.18, 0.1, 0.34, 0.22, 0.32, 0.3, 0.27, 0.1, 0.3, 0.08, 0.15, 0.1, 0.1, 0.25, 0.29, 0.1, 0.2, 0.18, 0.16, 0.3, 0.2, 0.33, 0.3, 0.38, 0.2, 0.17, 0.2, 0.26, 0.2, 0.3, 0.2, 0.02, 0.04, 0.12, 0.1, 0.27], 'right_lottery_gold_prop': [0.13, 0.25, 0.3, 0.1, 0.03, 0.23, 0.3, 0.05, 0.31, 0.1, 0.1, 0.22, 0.2, 0.16, 0.3, 0.2, 0.3, 0.26, 0.3, 0.15, 0.23, 0.1, 0.2, 0.11, 0.13, 0.2, 0.3, 0.12, 0.14, 0.1, 0.2, 0.37, 0.19, 0.3, 0.36, 0.3, 0.24, 0.1, 0.21, 0.2, 0.28, 0.28, 0.17, 0.1, 0.1, 0.2, 0.06, 0.2], 'left_lottery_total_coins': [10, 10, 400, 400, 10, 10, 400, 10, 10, 400, 400, 10, 400, 10, 400, 400, 400, 10, 400, 10, 10, 400, 400, 10, 10, 400, 400, 10, 10, 400, 400, 10, 10, 400, 10, 400, 10, 400, 10, 400, 10, 10, 10, 400, 400, 400, 10, 400], 'right_lottery_total_coins': [400, 400, 10, 10, 400, 400, 10, 400, 400, 10, 10, 400, 10, 400, 10, 10, 10, 400, 10, 400, 400, 10, 10, 400, 400, 10, 10, 400, 400, 10, 10, 400, 400, 10, 400, 10, 400, 10, 400, 10, 400, 400, 400, 10, 10, 10, 400, 10]}}, 'PT_TRIALS_N': 8, 'PT_TRIALS_PER_BLOCK': 8, 'PT_BLOCKS': 1, 'TEST_TRIALS_N': 8, 'TEST_TRIALS_PER_BLOCK': 8, 'TEST_BLOCKS': 1}",,,,,,,,,,,,,,,,,,,,,,,,,,,
html-keyboard-response,2,2,0.0-2.0,2m993eAu0zpJKQ3i03jO,all,,RLx8JQkEuvYRERezyZEQ0YfghQ,UTrk4JAKq5lUxvdT8J6OEFCIc7,async_data_save,,,,experiment__save_session_params,0.0,,,,,,,,,,,,,,,,,,,,,,,,,
html-keyboard-response,3,2,0.0-3.0,2m993eAu0zpJKQ3i03jO,all,,RLx8JQkEuvYRERezyZEQ0YfghQ,UTrk4JAKq5lUxvdT8J6OEFCIc7,async_data_save,,,,experiment__welcome,1.0,,,,,,,,,,,,,,,,,,,,,,,,,
html-keyboard-response,3,2,0.0-3.0,2m993eAu0zpJKQ3i03jO,all,,RLx8JQkEuvYRERezyZEQ0YfghQ,UTrk4JAKq5lUxvdT8J6OEFCIc7,async_data_save,,,,experiment__welcome,1.0,,,,,,,,,,,,,,,,,,,,,,,,,
html-keyboard-response,4,70,0.0-4.0-0.0-0.0,2m993eAu0zpJKQ3i03jO,all,,RLx8JQkEuvYRERezyZEQ0YfghQ,UTrk4JAKq5lUxvdT8J6OEFCIc7,,,,,,,,,,,,,,,,,,,,,,,,,,,,,,,
call-function,5,230,0.0-4.0-1.0,2m993eAu0zpJKQ3i03jO,all,,RLx8JQkEuvYRERezyZEQ0YfghQ,UTrk4JAKq5lUxvdT8J6OEFCIc7,,,,,,,,,,,,,,,,,,,,,,,,,,,,,,,
instructions,6,70268,0.0-4.0-2.0,2m993eAu0zpJKQ3i03jO,all,,RLx8JQkEuvYRERezyZEQ0YfghQ,UTrk4JAKq5lUxvdT8J6OEFCIc7,dn_general_instructions,,,,,,"[{'page_index': 0, 'viewing_time': 27940}, {'page_index': 1, 'viewing_time': 42095}]",70035.0,False,6.0,,,,,,,,,,,,,,,,,,,,,
call-function,7,70277,0.0-4.0-3.0,2m993eAu0zpJKQ3i03jO,all,,RLx8JQkEuvYRERezyZEQ0YfghQ,UTrk4JAKq5lUxvdT8J6OEFCIc7,,,,,,,,,,,,,,,,,,,,,,,,,,,,,,,
instructions,8,78138,0.0-4.0-4.0,2m993eAu0zpJKQ3i03jO,all,,RLx8JQkEuvYRERezyZEQ0YfghQ,UTrk4JAKq5lUxvdT8J6OEFCIc7,dn_pt_trials_instructions,,,,,,"[{'page_index': 0, 'viewing_time': 7861}]",7861.0,False,7.0,,,,,,,,,,,,,,,,,,,,,
html-keyboard-response,9,78449,0.0-4.0-5.0-0.0-0.0,2m993eAu0zpJKQ3i03jO,all,,RLx8JQkEuvYRERezyZEQ0YfghQ,UTrk4JAKq5lUxvdT8J6OEFCIc7,fixation_cross,,,,,,,,,,"<div class=""fixation-cross"">+</div>",,,,,,,,,,,,,,,,,,,,
html-keyboard-response,10,94410,0.0-4.0-5.0-0.0-1.0,2m993eAu0zpJKQ3i03jO,all,,RLx8JQkEuvYRERezyZEQ0YfghQ,UTrk4JAKq5lUxvdT8J6OEFCIc7,dn_main_trial_version_A,,,,,,,15959.0,False,9.0,"<div id=""lottery_labels_container"">
                            <div>Lottery 1</div>
                            <div>Lottery 2</div>
                        </div>
                        <div id=""lottery_text_desc_container"">
                            <div id=""lottery_left_text"" class=""lottery_text""></div>
                            <div id=""lottery_right_text"" class=""lottery_text""></div>
                        </div>
                        <div id=""lotteries_container"">
                            <div id=""lottery_left_parent"" class=""lottery_parent"" style='visibility: hidden'"">
                                <div id=""lottery_left"" class=""lottery""></div>
                            </div>
                            <div id=""lottery_right_parent"" class=""lottery_parent"" "">
                                <div id=""lottery_right"" class=""lottery""></div>
                            </div>
                        </div>
                        <div id=""lottery_choices"">
                            <div class=""lottery_choice""><span>Draw from Lottery 1</span><br><span><i>left arrow</i></span></div>
                            <div class=""lottery_choice""><span>Draw from Lottery 2</span><br><span><i>right arrow</i></span></div>
                        </div>
                ",arrowleft,True,0.0,0.0,A,harmony,text,array,large,small,0.3299999999999999,0.3,400.0,10.0,132.0,3.0,268.0,7.0,left,gold
html-keyboard-response,11,95431,0.0-4.0-5.0-0.0-2.0,2m993eAu0zpJKQ3i03jO,all,,RLx8JQkEuvYRERezyZEQ0YfghQ,UTrk4JAKq5lUxvdT8J6OEFCIc7,dn_trial_feedback,,,,,,,,,,"<p style=""font-size: 3em; color: gold; line-height: 2em;"">You drew a <b>gold coin</b>.</p>",,,,,,,,,,,,,,,,,,,,
html-keyboard-response,12,95734,0.0-4.0-5.0-0.0-0.1,2m993eAu0zpJKQ3i03jO,all,,RLx8JQkEuvYRERezyZEQ0YfghQ,UTrk4JAKq5lUxvdT8J6OEFCIc7,fixation_cross,,,,,,,,,,"<div class=""fixation-cross"">+</div>",,,,,,,,,,,,,,,,,,,,
html-keyboard-response,13,103715,0.0-4.0-5.0-0.0-1.1,2m993eAu0zpJKQ3i03jO,all,,RLx8JQkEuvYRERezyZEQ0YfghQ,UTrk4JAKq5lUxvdT8J6OEFCIc7,dn_main_trial_version_A,,,,,,,7979.0,False,13.0,"<div id=""lottery_labels_container"">
                            <div>Lottery 1</div>
                            <div>Lottery 2</div>
                        </div>
                        <div id=""lottery_text_desc_container"">
                            <div id=""lottery_left_text"" class=""lottery_text""></div>
                            <div id=""lottery_right_text"" class=""lottery_text""></div>
                        </div>
                        <div id=""lotteries_container"">
                            <div id=""lottery_left_parent"" class=""lottery_parent"" "">
                                <div id=""lottery_left"" class=""lottery""></div>
                            </div>
                            <div id=""lottery_right_parent"" class=""lottery_parent"" style='visibility: hidden'"">
                                <div id=""lottery_right"" class=""lottery""></div>
                            </div>
                        </div>
                        <div id=""lottery_choices"">
                            <div class=""lottery_choice""><span>Draw from Lottery 1</span><br><span><i>left arrow</i></span></div>
                            <div class=""lottery_choice""><span>Draw from Lottery 2</span><br><span><i>right arrow</i></span></div>
                        </div>
                ",arrowleft,True,0.0,1.0,A,conflict,array,text,large,small,0.12,0.2,400.0,10.0,48.0,2.0,352.0,8.0,left,silver
html-keyboard-response,14,104721,0.0-4.0-5.0-0.0-2.1,2m993eAu0zpJKQ3i03jO,all,,RLx8JQkEuvYRERezyZEQ0YfghQ,UTrk4JAKq5lUxvdT8J6OEFCIc7,dn_trial_feedback,,,,,,,,,,"<p style=""font-size: 3em; color: white; line-height: 2em;"">You drew a <b>silver coin</b>.</p>",,,,,,,,,,,,,,,,,,,,
html-keyboard-response,15,105031,0.0-4.0-5.0-0.0-0.2,2m993eAu0zpJKQ3i03jO,all,,RLx8JQkEuvYRERezyZEQ0YfghQ,UTrk4JAKq5lUxvdT8J6OEFCIc7,fixation_cross,,,,,,,,,,"<div class=""fixation-cross"">+</div>",,,,,,,,,,,,,,,,,,,,
html-keyboard-response,16,116043,0.0-4.0-5.0-0.0-1.2,2m993eAu0zpJKQ3i03jO,all,,RLx8JQkEuvYRERezyZEQ0YfghQ,UTrk4JAKq5lUxvdT8J6OEFCIc7,dn_main_trial_version_A,,,,,,,11010.0,False,16.0,"<div id=""lottery_labels_container"">
                            <div>Lottery 1</div>
                            <div>Lottery 2</div>
                        </div>
                        <div id=""lottery_text_desc_container"">
                            <div id=""lottery_left_text"" class=""lottery_text""></div>
                            <div id=""lottery_right_text"" class=""lottery_text""></div>
                        </div>
                        <div id=""lotteries_container"">
                            <div id=""lottery_left_parent"" class=""lottery_parent"" style='visibility: hidden'"">
                                <div id=""lottery_left"" class=""lottery""></div>
                            </div>
                            <div id=""lottery_right_parent"" class=""lottery_parent"" "">
                                <div id=""lottery_right"" class=""lottery""></div>
                            </div>
                        </div>
                        <div id=""lottery_choices"">
                            <div class=""lottery_choice""><span>Draw from Lottery 1</span><br><span><i>left arrow</i></span></div>
                            <div class=""lottery_choice""><span>Draw from Lottery 2</span><br><span><i>right arrow</i></span></div>
                        </div>
                ",arrowright,True,0.0,2.0,A,harmony,text,array,small,large,0.1,0.18,10.0,400.0,1.0,72.0,9.0,328.0,right,silver
html-keyboard-response,17,117059,0.0-4.0-5.0-0.0-2.2,2m993eAu0zpJKQ3i03jO,all,,RLx8JQkEuvYRERezyZEQ0YfghQ,UTrk4JAKq5lUxvdT8J6OEFCIc7,dn_trial_feedback,,,,,,,,,,"<p style=""font-size: 3em; color: white; line-height: 2em;"">You drew a <b>silver coin</b>.</p>",,,,,,,,,,,,,,,,,,,,
html-keyboard-response,18,117366,0.0-4.0-5.0-0.0-0.3,2m993eAu0zpJKQ3i03jO,all,,RLx8JQkEuvYRERezyZEQ0YfghQ,UTrk4JAKq5lUxvdT8J6OEFCIc7,fixation_cross,,,,,,,,,,"<div class=""fixation-cross"">+</div>",,,,,,,,,,,,,,,,,,,,
html-keyboard-response,19,133322,0.0-4.0-5.0-0.0-1.3,2m993eAu0zpJKQ3i03jO,all,,RLx8JQkEuvYRERezyZEQ0YfghQ,UTrk4JAKq5lUxvdT8J6OEFCIc7,dn_main_trial_version_A,,,,,,,15955.0,False,19.0,"<div id=""lottery_labels_container"">
                            <div>Lottery 1</div>
                            <div>Lottery 2</div>
                        </div>
                        <div id=""lottery_text_desc_container"">
                            <div id=""lottery_left_text"" class=""lottery_text""></div>
                            <div id=""lottery_right_text"" class=""lottery_text""></div>
                        </div>
                        <div id=""lotteries_container"">
                            <div id=""lottery_left_parent"" class=""lottery_parent"" style='visibility: hidden'"">
                                <div id=""lottery_left"" class=""lottery""></div>
                            </div>
                            <div id=""lottery_right_parent"" class=""lottery_parent"" style='visibility: hidden'"">
                                <div id=""lottery_right"" class=""lottery""></div>
                            </div>
                        </div>
                        <div id=""lottery_choices"">
                            <div class=""lottery_choice""><span>Draw from Lottery 1</span><br><span><i>left arrow</i></span></div>
                            <div class=""lottery_choice""><span>Draw from Lottery 2</span><br><span><i>right arrow</i></span></div>
                        </div>
                ",arrowright,True,0.0,3.0,A,conflict,text,text,small,large,0.2,0.12,10.0,400.0,2.0,48.0,8.0,352.0,right,silver
html-keyboard-response,20,134336,0.0-4.0-5.0-0.0-2.3,2m993eAu0zpJKQ3i03jO,all,,RLx8JQkEuvYRERezyZEQ0YfghQ,UTrk4JAKq5lUxvdT8J6OEFCIc7,dn_trial_feedback,,,,,,,,,,"<p style=""font-size: 3em; color: white; line-height: 2em;"">You drew a <b>silver coin</b>.</p>",,,,,,,,,,,,,,,,,,,,
html-keyboard-response,21,134649,0.0-4.0-5.0-0.0-0.4,2m993eAu0zpJKQ3i03jO,all,,RLx8JQkEuvYRERezyZEQ0YfghQ,UTrk4JAKq5lUxvdT8J6OEFCIc7,fixation_cross,,,,,,,,,,"<div class=""fixation-cross"">+</div>",,,,,,,,,,,,,,,,,,,,
html-keyboard-response,22,143409,0.0-4.0-5.0-0.0-1.4,2m993eAu0zpJKQ3i03jO,all,,RLx8JQkEuvYRERezyZEQ0YfghQ,UTrk4JAKq5lUxvdT8J6OEFCIc7,dn_main_trial_version_A,,,,,,,8759.0,False,22.0,"<div id=""lottery_labels_container"">
                            <div>Lottery 1</div>
                            <div>Lottery 2</div>
                        </div>
                        <div id=""lottery_text_desc_container"">
                            <div id=""lottery_left_text"" class=""lottery_text""></div>
                            <div id=""lottery_right_text"" class=""lottery_text""></div>
                        </div>
                        <div id=""lotteries_container"">
                            <div id=""lottery_left_parent"" class=""lottery_parent"" style='visibility: hidden'"">
                                <div id=""lottery_left"" class=""lottery""></div>
                            </div>
                            <div id=""lottery_right_parent"" class=""lottery_parent"" "">
                                <div id=""lottery_right"" class=""lottery""></div>
                            </div>
                        </div>
                        <div id=""lottery_choices"">
                            <div class=""lottery_choice""><span>Draw from Lottery 1</span><br><span><i>left arrow</i></span></div>
                            <div class=""lottery_choice""><span>Draw from Lottery 2</span><br><span><i>right arrow</i></span></div>
                        </div>
                ",arrowleft,True,0.0,4.0,A,harmony,text,array,large,small,0.38,0.3,400.0,10.0,152.0,3.0,248.0,7.0,left,gold
html-keyboard-response,23,144415,0.0-4.0-5.0-0.0-2.4,2m993eAu0zpJKQ3i03jO,all,,RLx8JQkEuvYRERezyZEQ0YfghQ,UTrk4JAKq5lUxvdT8J6OEFCIc7,dn_trial_feedback,,,,,,,,,,"<p style=""font-size: 3em; color: gold; line-height: 2em;"">You drew a <b>gold coin</b>.</p>",,,,,,,,,,,,,,,,,,,,
html-keyboard-response,24,144731,0.0-4.0-5.0-0.0-0.5,2m993eAu0zpJKQ3i03jO,all,,RLx8JQkEuvYRERezyZEQ0YfghQ,UTrk4JAKq5lUxvdT8J6OEFCIc7,fixation_cross,,,,,,,,,,"<div class=""fixation-cross"">+</div>",,,,,,,,,,,,,,,,,,,,
html-keyboard-response,25,148754,0.0-4.0-5.0-0.0-1.5,2m993eAu0zpJKQ3i03jO,all,,RLx8JQkEuvYRERezyZEQ0YfghQ,UTrk4JAKq5lUxvdT8J6OEFCIc7,dn_main_trial_version_A,,,,,,,4021.0,False,26.0,"<div id=""lottery_labels_container"">
                            <div>Lottery 1</div>
                            <div>Lottery 2</div>
                        </div>
                        <div id=""lottery_text_desc_container"">
                            <div id=""lottery_left_text"" class=""lottery_text""></div>
                            <div id=""lottery_right_text"" class=""lottery_text""></div>
                        </div>
                        <div id=""lotteries_container"">
                            <div id=""lottery_left_parent"" class=""lottery_parent"" "">
                                <div id=""lottery_left"" class=""lottery""></div>
                            </div>
                            <div id=""lottery_right_parent"" class=""lottery_parent"" style='visibility: hidden'"">
                                <div id=""lottery_right"" class=""lottery""></div>
                            </div>
                        </div>
                        <div id=""lottery_choices"">
                            <div class=""lottery_choice""><span>Draw from Lottery 1</span><br><span><i>left arrow</i></span></div>
                            <div class=""lottery_choice""><span>Draw from Lottery 2</span><br><span><i>right arrow</i></span></div>
                        </div>
                ",arrowleft,True,0.0,5.0,A,conflict,array,text,large,small,0.16,0.2,400.0,10.0,64.0,2.0,336.0,8.0,left,silver
html-keyboard-response,26,149755,0.0-4.0-5.0-0.0-2.5,2m993eAu0zpJKQ3i03jO,all,,RLx8JQkEuvYRERezyZEQ0YfghQ,UTrk4JAKq5lUxvdT8J6OEFCIc7,dn_trial_feedback,,,,,,,,,,"<p style=""font-size: 3em; color: white; line-height: 2em;"">You drew a <b>silver coin</b>.</p>",,,,,,,,,,,,,,,,,,,,
html-keyboard-response,27,150065,0.0-4.0-5.0-0.0-0.6,2m993eAu0zpJKQ3i03jO,all,,RLx8JQkEuvYRERezyZEQ0YfghQ,UTrk4JAKq5lUxvdT8J6OEFCIc7,fixation_cross,,,,,,,,,,"<div class=""fixation-cross"">+</div>",,,,,,,,,,,,,,,,,,,,
html-keyboard-response,28,162380,0.0-4.0-5.0-0.0-1.6,2m993eAu0zpJKQ3i03jO,all,,RLx8JQkEuvYRERezyZEQ0YfghQ,UTrk4JAKq5lUxvdT8J6OEFCIc7,dn_main_trial_version_A,,,,,,,12313.0,False,29.0,"<div id=""lottery_labels_container"">
                            <div>Lottery 1</div>
                            <div>Lottery 2</div>
                        </div>
                        <div id=""lottery_text_desc_container"">
                            <div id=""lottery_left_text"" class=""lottery_text""></div>
                            <div id=""lottery_right_text"" class=""lottery_text""></div>
                        </div>
                        <div id=""lotteries_container"">
                            <div id=""lottery_left_parent"" class=""lottery_parent"" style='visibility: hidden'"">
                                <div id=""lottery_left"" class=""lottery""></div>
                            </div>
                            <div id=""lottery_right_parent"" class=""lottery_parent"" "">
                                <div id=""lottery_right"" class=""lottery""></div>
                            </div>
                        </div>
                        <div id=""lottery_choices"">
                            <div class=""lottery_choice""><span>Draw from Lottery 1</span><br><span><i>left arrow</i></span></div>
                            <div class=""lottery_choice""><span>Draw from Lottery 2</span><br><span><i>right arrow</i></span></div>
                        </div>
                ",arrowright,True,0.0,6.0,A,harmony,text,array,small,large,0.2,0.26,10.0,400.0,2.0,104.0,8.0,296.0,right,gold
html-keyboard-response,29,163397,0.0-4.0-5.0-0.0-2.6,2m993eAu0zpJKQ3i03jO,all,,RLx8JQkEuvYRERezyZEQ0YfghQ,UTrk4JAKq5lUxvdT8J6OEFCIc7,dn_trial_feedback,,,,,,,,,,"<p style=""font-size: 3em; color: gold; line-height: 2em;"">You drew a <b>gold coin</b>.</p>",,,,,,,,,,,,,,,,,,,,
html-keyboard-response,30,163714,0.0-4.0-5.0-0.0-0.7,2m993eAu0zpJKQ3i03jO,all,,RLx8JQkEuvYRERezyZEQ0YfghQ,UTrk4JAKq5lUxvdT8J6OEFCIc7,fixation_cross,,,,,,,,,,"<div class=""fixation-cross"">+</div>",,,,,,,,,,,,,,,,,,,,
html-keyboard-response,31,170650,0.0-4.0-5.0-0.0-1.7,2m993eAu0zpJKQ3i03jO,all,,RLx8JQkEuvYRERezyZEQ0YfghQ,UTrk4JAKq5lUxvdT8J6OEFCIc7,dn_main_trial_version_A,,,,,,,6935.0,False,33.0,"<div id=""lottery_labels_container"">
                            <div>Lottery 1</div>
                            <div>Lottery 2</div>
                        </div>
                        <div id=""lottery_text_desc_container"">
                            <div id=""lottery_left_text"" class=""lottery_text""></div>
                            <div id=""lottery_right_text"" class=""lottery_text""></div>
                        </div>
                        <div id=""lotteries_container"">
                            <div id=""lottery_left_parent"" class=""lottery_parent"" "">
                                <div id=""lottery_left"" class=""lottery""></div>
                            </div>
                            <div id=""lottery_right_parent"" class=""lottery_parent"" "">
                                <div id=""lottery_right"" class=""lottery""></div>
                            </div>
                        </div>
                        <div id=""lottery_choices"">
                            <div class=""lottery_choice""><span>Draw from Lottery 1</span><br><span><i>left arrow</i></span></div>
                            <div class=""lottery_choice""><span>Draw from Lottery 2</span><br><span><i>right arrow</i></span></div>
                        </div>
                ",arrowright,True,0.0,7.0,A,harmony,array,array,small,large,0.2,0.25,10.0,400.0,2.0,100.0,8.0,300.0,right,silver
html-keyboard-response,32,171654,0.0-4.0-5.0-0.0-2.7,2m993eAu0zpJKQ3i03jO,all,,RLx8JQkEuvYRERezyZEQ0YfghQ,UTrk4JAKq5lUxvdT8J6OEFCIc7,dn_trial_feedback,,,,,,,,,,"<p style=""font-size: 3em; color: white; line-height: 2em;"">You drew a <b>silver coin</b>.</p>",,,,,,,,,,,,,,,,,,,,
instructions,33,217657,0.0-4.0-6.0,2m993eAu0zpJKQ3i03jO,all,,RLx8JQkEuvYRERezyZEQ0YfghQ,UTrk4JAKq5lUxvdT8J6OEFCIc7,dn_test_trials_instructions,,,,,,,,True,35.0,,,,,,,,,,,,,,,,,,,,,
html-keyboard-response,34,217965,0.0-4.0-7.0-0.0-0.0,2m993eAu0zpJKQ3i03jO,all,,RLx8JQkEuvYRERezyZEQ0YfghQ,UTrk4JAKq5lUxvdT8J6OEFCIc7,fixation_cross,,,,,,,,,,"<div class=""fixation-cross"">+</div>",,,,,,,,,,,,,,,,,,,,
html-keyboard-response,35,233974,0.0-4.0-7.0-0.0-1.0,2m993eAu0zpJKQ3i03jO,all,,RLx8JQkEuvYRERezyZEQ0YfghQ,UTrk4JAKq5lUxvdT8J6OEFCIc7,dn_main_trial_version_A,,,,,,,,True,37.0,"<div id=""lottery_labels_container"">
                            <div>Lottery 1</div>
                            <div>Lottery 2</div>
                        </div>
                        <div id=""lottery_text_desc_container"">
                            <div id=""lottery_left_text"" class=""lottery_text""></div>
                            <div id=""lottery_right_text"" class=""lottery_text""></div>
                        </div>
                        <div id=""lotteries_container"">
                            <div id=""lottery_left_parent"" class=""lottery_parent"" "">
                                <div id=""lottery_left"" class=""lottery""></div>
                            </div>
                            <div id=""lottery_right_parent"" class=""lottery_parent"" style='visibility: hidden'"">
                                <div id=""lottery_right"" class=""lottery""></div>
                            </div>
                        </div>
                        <div id=""lottery_choices"">
                            <div class=""lottery_choice""><span>Draw from Lottery 1</span><br><span><i>left arrow</i></span></div>
                            <div class=""lottery_choice""><span>Draw from Lottery 2</span><br><span><i>right arrow</i></span></div>
                        </div>
                ",,False,0.0,0.0,A,harmony,array,text,large,small,0.24,0.2,400.0,10.0,96.0,2.0,304.0,8.0,,
html-keyboard-response,36,234988,0.0-4.0-7.0-0.0-2.0,2m993eAu0zpJKQ3i03jO,all,,RLx8JQkEuvYRERezyZEQ0YfghQ,UTrk4JAKq5lUxvdT8J6OEFCIc7,dn_trial_feedback,,,,,,,,,,"<p style=""font-size: 3em; color: red;"">X<br><br>TOO SLOW</p>",,,,,,,,,,,,,,,,,,,,
html-keyboard-response,37,235294,0.0-4.0-7.0-0.0-0.1,2m993eAu0zpJKQ3i03jO,all,,RLx8JQkEuvYRERezyZEQ0YfghQ,UTrk4JAKq5lUxvdT8J6OEFCIc7,fixation_cross,,,,,,,,,,"<div class=""fixation-cross"">+</div>",,,,,,,,,,,,,,,,,,,,
html-keyboard-response,38,251308,0.0-4.0-7.0-0.0-1.1,2m993eAu0zpJKQ3i03jO,all,,RLx8JQkEuvYRERezyZEQ0YfghQ,UTrk4JAKq5lUxvdT8J6OEFCIc7,dn_main_trial_version_A,,,,,,,,True,40.0,"<div id=""lottery_labels_container"">
                            <div>Lottery 1</div>
                            <div>Lottery 2</div>
                        </div>
                        <div id=""lottery_text_desc_container"">
                            <div id=""lottery_left_text"" class=""lottery_text""></div>
                            <div id=""lottery_right_text"" class=""lottery_text""></div>
                        </div>
                        <div id=""lotteries_container"">
                            <div id=""lottery_left_parent"" class=""lottery_parent"" "">
                                <div id=""lottery_left"" class=""lottery""></div>
                            </div>
                            <div id=""lottery_right_parent"" class=""lottery_parent"" style='visibility: hidden'"">
                                <div id=""lottery_right"" class=""lottery""></div>
                            </div>
                        </div>
                        <div id=""lottery_choices"">
                            <div class=""lottery_choice""><span>Draw from Lottery 1</span><br><span><i>left arrow</i></span></div>
                            <div class=""lottery_choice""><span>Draw from Lottery 2</span><br><span><i>right arrow</i></span></div>
                        </div>
                ",,False,0.0,1.0,A,conflict,array,text,small,large,0.1,0.08,10.0,400.0,1.0,32.0,9.0,368.0,,
html-keyboard-response,39,252321,0.0-4.0-7.0-0.0-2.1,2m993eAu0zpJKQ3i03jO,all,,RLx8JQkEuvYRERezyZEQ0YfghQ,UTrk4JAKq5lUxvdT8J6OEFCIc7,dn_trial_feedback,,,,,,,,,,"<p style=""font-size: 3em; color: red;"">X<br><br>TOO SLOW</p>",,,,,,,,,,,,,,,,,,,,
html-keyboard-response,40,252629,0.0-4.0-7.0-0.0-0.2,2m993eAu0zpJKQ3i03jO,all,,RLx8JQkEuvYRERezyZEQ0YfghQ,UTrk4JAKq5lUxvdT8J6OEFCIc7,fixation_cross,,,,,,,,,,"<div class=""fixation-cross"">+</div>",,,,,,,,,,,,,,,,,,,,
html-keyboard-response,41,264427,0.0-4.0-7.0-0.0-1.2,2m993eAu0zpJKQ3i03jO,all,,RLx8JQkEuvYRERezyZEQ0YfghQ,UTrk4JAKq5lUxvdT8J6OEFCIc7,dn_main_trial_version_A,,,,,,,11796.0,False,43.0,"<div id=""lottery_labels_container"">
                            <div>Lottery 1</div>
                            <div>Lottery 2</div>
                        </div>
                        <div id=""lottery_text_desc_container"">
                            <div id=""lottery_left_text"" class=""lottery_text""></div>
                            <div id=""lottery_right_text"" class=""lottery_text""></div>
                        </div>
                        <div id=""lotteries_container"">
                            <div id=""lottery_left_parent"" class=""lottery_parent"" "">
                                <div id=""lottery_left"" class=""lottery""></div>
                            </div>
                            <div id=""lottery_right_parent"" class=""lottery_parent"" "">
                                <div id=""lottery_right"" class=""lottery""></div>
                            </div>
                        </div>
                        <div id=""lottery_choices"">
                            <div class=""lottery_choice""><span>Draw from Lottery 1</span><br><span><i>left arrow</i></span></div>
                            <div class=""lottery_choice""><span>Draw from Lottery 2</span><br><span><i>right arrow</i></span></div>
                        </div>
                ",arrowleft,False,0.0,2.0,A,harmony,array,array,large,small,0.16,0.1,400.0,10.0,64.0,1.0,336.0,9.0,left,silver
html-keyboard-response,42,265437,0.0-4.0-7.0-0.0-2.2,2m993eAu0zpJKQ3i03jO,all,,RLx8JQkEuvYRERezyZEQ0YfghQ,UTrk4JAKq5lUxvdT8J6OEFCIc7,dn_trial_feedback,,,,,,,,,,"<p style=""font-size: 3em; color: white; line-height: 2em;"">You drew a <b>silver coin</b>.</p>",,,,,,,,,,,,,,,,,,,,
html-keyboard-response,43,265747,0.0-4.0-7.0-0.0-0.3,2m993eAu0zpJKQ3i03jO,all,,RLx8JQkEuvYRERezyZEQ0YfghQ,UTrk4JAKq5lUxvdT8J6OEFCIc7,fixation_cross,,,,,,,,,,"<div class=""fixation-cross"">+</div>",,,,,,,,,,,,,,,,,,,,
html-keyboard-response,44,281754,0.0-4.0-7.0-0.0-1.3,2m993eAu0zpJKQ3i03jO,all,,RLx8JQkEuvYRERezyZEQ0YfghQ,UTrk4JAKq5lUxvdT8J6OEFCIc7,dn_main_trial_version_A,,,,,,,,True,46.0,"<div id=""lottery_labels_container"">
                            <div>Lottery 1</div>
                            <div>Lottery 2</div>
                        </div>
                        <div id=""lottery_text_desc_container"">
                            <div id=""lottery_left_text"" class=""lottery_text""></div>
                            <div id=""lottery_right_text"" class=""lottery_text""></div>
                        </div>
                        <div id=""lotteries_container"">
                            <div id=""lottery_left_parent"" class=""lottery_parent"" "">
                                <div id=""lottery_left"" class=""lottery""></div>
                            </div>
                            <div id=""lottery_right_parent"" class=""lottery_parent"" style='visibility: hidden'"">
                                <div id=""lottery_right"" class=""lottery""></div>
                            </div>
                        </div>
                        <div id=""lottery_choices"">
                            <div class=""lottery_choice""><span>Draw from Lottery 1</span><br><span><i>left arrow</i></span></div>
                            <div class=""lottery_choice""><span>Draw from Lottery 2</span><br><span><i>right arrow</i></span></div>
                        </div>
                ",,False,0.0,3.0,A,harmony,array,text,small,large,0.1,0.18,10.0,400.0,1.0,72.0,9.0,328.0,,
html-keyboard-response,45,282756,0.0-4.0-7.0-0.0-2.3,2m993eAu0zpJKQ3i03jO,all,,RLx8JQkEuvYRERezyZEQ0YfghQ,UTrk4JAKq5lUxvdT8J6OEFCIc7,dn_trial_feedback,,,,,,,,,,"<p style=""font-size: 3em; color: red;"">X<br><br>TOO SLOW</p>",,,,,,,,,,,,,,,,,,,,
html-keyboard-response,46,283063,0.0-4.0-7.0-0.0-0.4,2m993eAu0zpJKQ3i03jO,all,,RLx8JQkEuvYRERezyZEQ0YfghQ,UTrk4JAKq5lUxvdT8J6OEFCIc7,fixation_cross,,,,,,,,,,"<div class=""fixation-cross"">+</div>",,,,,,,,,,,,,,,,,,,,
html-keyboard-response,47,294897,0.0-4.0-7.0-0.0-1.4,2m993eAu0zpJKQ3i03jO,all,,RLx8JQkEuvYRERezyZEQ0YfghQ,UTrk4JAKq5lUxvdT8J6OEFCIc7,dn_main_trial_version_A,,,,,,,11834.0,False,49.0,"<div id=""lottery_labels_container"">
                            <div>Lottery 1</div>
                            <div>Lottery 2</div>
                        </div>
                        <div id=""lottery_text_desc_container"">
                            <div id=""lottery_left_text"" class=""lottery_text""></div>
                            <div id=""lottery_right_text"" class=""lottery_text""></div>
                        </div>
                        <div id=""lotteries_container"">
                            <div id=""lottery_left_parent"" class=""lottery_parent"" style='visibility: hidden'"">
                                <div id=""lottery_left"" class=""lottery""></div>
                            </div>
                            <div id=""lottery_right_parent"" class=""lottery_parent"" style='visibility: hidden'"">
                                <div id=""lottery_right"" class=""lottery""></div>
                            </div>
                        </div>
                        <div id=""lottery_choices"">
                            <div class=""lottery_choice""><span>Draw from Lottery 1</span><br><span><i>left arrow</i></span></div>
                            <div class=""lottery_choice""><span>Draw from Lottery 2</span><br><span><i>right arrow</i></span></div>
                        </div>
                ",arrowleft,False,0.0,4.0,A,conflict,text,text,small,large,0.3,0.2199999999999999,10.0,400.0,3.0,88.0,7.0,312.0,left,silver
html-keyboard-response,48,295902,0.0-4.0-7.0-0.0-2.4,2m993eAu0zpJKQ3i03jO,all,,RLx8JQkEuvYRERezyZEQ0YfghQ,UTrk4JAKq5lUxvdT8J6OEFCIc7,dn_trial_feedback,,,,,,,,,,"<p style=""font-size: 3em; color: white; line-height: 2em;"">You drew a <b>silver coin</b>.</p>",,,,,,,,,,,,,,,,,,,,
html-keyboard-response,49,296212,0.0-4.0-7.0-0.0-0.5,2m993eAu0zpJKQ3i03jO,all,,RLx8JQkEuvYRERezyZEQ0YfghQ,UTrk4JAKq5lUxvdT8J6OEFCIc7,fixation_cross,,,,,,,,,,"<div class=""fixation-cross"">+</div>",,,,,,,,,,,,,,,,,,,,
html-keyboard-response,50,304563,0.0-4.0-7.0-0.0-1.5,2m993eAu0zpJKQ3i03jO,all,,RLx8JQkEuvYRERezyZEQ0YfghQ,UTrk4JAKq5lUxvdT8J6OEFCIc7,dn_main_trial_version_A,,,,,,,8349.0,False,52.0,"<div id=""lottery_labels_container"">
                            <div>Lottery 1</div>
                            <div>Lottery 2</div>
                        </div>
                        <div id=""lottery_text_desc_container"">
                            <div id=""lottery_left_text"" class=""lottery_text""></div>
                            <div id=""lottery_right_text"" class=""lottery_text""></div>
                        </div>
                        <div id=""lotteries_container"">
                            <div id=""lottery_left_parent"" class=""lottery_parent"" style='visibility: hidden'"">
                                <div id=""lottery_left"" class=""lottery""></div>
                            </div>
                            <div id=""lottery_right_parent"" class=""lottery_parent"" style='visibility: hidden'"">
                                <div id=""lottery_right"" class=""lottery""></div>
                            </div>
                        </div>
                        <div id=""lottery_choices"">
                            <div class=""lottery_choice""><span>Draw from Lottery 1</span><br><span><i>left arrow</i></span></div>
                            <div class=""lottery_choice""><span>Draw from Lottery 2</span><br><span><i>right arrow</i></span></div>
                        </div>
                ",arrowleft,False,0.0,5.0,A,harmony,text,text,large,small,0.27,0.2,400.0,10.0,108.0,2.0,292.0,8.0,left,silver
html-keyboard-response,51,305571,0.0-4.0-7.0-0.0-2.5,2m993eAu0zpJKQ3i03jO,all,,RLx8JQkEuvYRERezyZEQ0YfghQ,UTrk4JAKq5lUxvdT8J6OEFCIc7,dn_trial_feedback,,,,,,,,,,"<p style=""font-size: 3em; color: white; line-height: 2em;"">You drew a <b>silver coin</b>.</p>",,,,,,,,,,,,,,,,,,,,
html-keyboard-response,52,305879,0.0-4.0-7.0-0.0-0.6,2m993eAu0zpJKQ3i03jO,all,,RLx8JQkEuvYRERezyZEQ0YfghQ,UTrk4JAKq5lUxvdT8J6OEFCIc7,fixation_cross,,,,,,,,,,"<div class=""fixation-cross"">+</div>",,,,,,,,,,,,,,,,,,,,
html-keyboard-response,53,310563,0.0-4.0-7.0-0.0-1.6,2m993eAu0zpJKQ3i03jO,all,,RLx8JQkEuvYRERezyZEQ0YfghQ,UTrk4JAKq5lUxvdT8J6OEFCIc7,dn_main_trial_version_A,,,,,,,4681.0,False,55.0,"<div id=""lottery_labels_container"">
                            <div>Lottery 1</div>
                            <div>Lottery 2</div>
                        </div>
                        <div id=""lottery_text_desc_container"">
                            <div id=""lottery_left_text"" class=""lottery_text""></div>
                            <div id=""lottery_right_text"" class=""lottery_text""></div>
                        </div>
                        <div id=""lotteries_container"">
                            <div id=""lottery_left_parent"" class=""lottery_parent"" "">
                                <div id=""lottery_left"" class=""lottery""></div>
                            </div>
                            <div id=""lottery_right_parent"" class=""lottery_parent"" "">
                                <div id=""lottery_right"" class=""lottery""></div>
                            </div>
                        </div>
                        <div id=""lottery_choices"">
                            <div class=""lottery_choice""><span>Draw from Lottery 1</span><br><span><i>left arrow</i></span></div>
                            <div class=""lottery_choice""><span>Draw from Lottery 2</span><br><span><i>right arrow</i></span></div>
                        </div>
                ",arrowleft,False,0.0,6.0,A,conflict,array,array,small,large,0.3,0.27,10.0,400.0,3.0,108.0,7.0,292.0,left,gold
html-keyboard-response,54,311576,0.0-4.0-7.0-0.0-2.6,2m993eAu0zpJKQ3i03jO,all,,RLx8JQkEuvYRERezyZEQ0YfghQ,UTrk4JAKq5lUxvdT8J6OEFCIc7,dn_trial_feedback,,,,,,,,,,"<p style=""font-size: 3em; color: gold; line-height: 2em;"">You drew a <b>gold coin</b>.</p>",,,,,,,,,,,,,,,,,,,,
html-keyboard-response,55,311880,0.0-4.0-7.0-0.0-0.7,2m993eAu0zpJKQ3i03jO,all,,RLx8JQkEuvYRERezyZEQ0YfghQ,UTrk4JAKq5lUxvdT8J6OEFCIc7,fixation_cross,,,,,,,,,,"<div class=""fixation-cross"">+</div>",,,,,,,,,,,,,,,,,,,,
html-keyboard-response,56,315077,0.0-4.0-7.0-0.0-1.7,2m993eAu0zpJKQ3i03jO,all,,RLx8JQkEuvYRERezyZEQ0YfghQ,UTrk4JAKq5lUxvdT8J6OEFCIc7,dn_main_trial_version_A,,,,,,,3196.0,False,59.0,"<div id=""lottery_labels_container"">
                            <div>Lottery 1</div>
                            <div>Lottery 2</div>
                        </div>
                        <div id=""lottery_text_desc_container"">
                            <div id=""lottery_left_text"" class=""lottery_text""></div>
                            <div id=""lottery_right_text"" class=""lottery_text""></div>
                        </div>
                        <div id=""lotteries_container"">
                            <div id=""lottery_left_parent"" class=""lottery_parent"" style='visibility: hidden'"">
                                <div id=""lottery_left"" class=""lottery""></div>
                            </div>
                            <div id=""lottery_right_parent"" class=""lottery_parent"" "">
                                <div id=""lottery_right"" class=""lottery""></div>
                            </div>
                        </div>
                        <div id=""lottery_choices"">
                            <div class=""lottery_choice""><span>Draw from Lottery 1</span><br><span><i>left arrow</i></span></div>
                            <div class=""lottery_choice""><span>Draw from Lottery 2</span><br><span><i>right arrow</i></span></div>
                        </div>
                ",arrowright,False,0.0,7.0,A,harmony,text,array,large,small,0.21,0.2,400.0,10.0,84.0,2.0,316.0,8.0,right,silver
html-keyboard-response,57,316087,0.0-4.0-7.0-0.0-2.7,2m993eAu0zpJKQ3i03jO,all,,RLx8JQkEuvYRERezyZEQ0YfghQ,UTrk4JAKq5lUxvdT8J6OEFCIc7,dn_trial_feedback,,,,,,,,,,"<p style=""font-size: 3em; color: white; line-height: 2em;"">You drew a <b>silver coin</b>.</p>",,,,,,,,,,,,,,,,,,,,
call-function,58,316091,0.0-4.0-8.0,2m993eAu0zpJKQ3i03jO,all,,RLx8JQkEuvYRERezyZEQ0YfghQ,UTrk4JAKq5lUxvdT8J6OEFCIc7,,,,,,,,,,,,,,,,,,,,,,,,,,,,,,,
html-button-response,59,319045,0.0-4.0-9.0,2m993eAu0zpJKQ3i03jO,all,,RLx8JQkEuvYRERezyZEQ0YfghQ,UTrk4JAKq5lUxvdT8J6OEFCIc7,feedback_Denominator Neglect_A,,,,,,,2951.0,,,"
                    <p class=""instructions-title"">Feedback?</p>
                    <p>If something went wrong during the last task or you think we can improve it, please leave any and all comments you have here.</p>
                    <div style=""margin-bottom: 3vh"">
                        <textarea id=""task_feedback"" style=""width: 50vw; height: 15vh;""></textarea>
                    </div>
                ",,,,,,,,,,,,,,,,,,,,
call-function,60,319045,0.0-4.0-10.0,2m993eAu0zpJKQ3i03jO,all,,RLx8JQkEuvYRERezyZEQ0YfghQ,UTrk4JAKq5lUxvdT8J6OEFCIc7,,,,,,,,,,,,,,,,,,,,,,,,,,,,,,,
html-keyboard-response,61,319047,0.0-4.0-12.0,2m993eAu0zpJKQ3i03jO,all,,RLx8JQkEuvYRERezyZEQ0YfghQ,UTrk4JAKq5lUxvdT8J6OEFCIc7,async_data_save,,,,Denominator Neglect_A__completed,2.0,,,,,,,,,,,,,,,,,,,,,,,,,
html-keyboard-response,62,319049,0.0-6.0-0.0-0.0,2m993eAu0zpJKQ3i03jO,all,,RLx8JQkEuvYRERezyZEQ0YfghQ,UTrk4JAKq5lUxvdT8J6OEFCIc7,,,,,,,,,,,,,,,,,,,,,,,,,,,,,,,
call-function,63,319205,0.0-6.0-1.0,2m993eAu0zpJKQ3i03jO,all,,RLx8JQkEuvYRERezyZEQ0YfghQ,UTrk4JAKq5lUxvdT8J6OEFCIc7,,,,,,,,,,,,,,,,,,,,,,,,,,,,,,,
instructions,64,325011,0.0-6.0-2.0,2m993eAu0zpJKQ3i03jO,all,,RLx8JQkEuvYRERezyZEQ0YfghQ,UTrk4JAKq5lUxvdT8J6OEFCIc7,dn_general_instructions,,,,,,"[{'page_index': 0, 'viewing_time': 5805}]",5805.0,False,63.0,,,,,,,,,,,,,,,,,,,,,
call-function,65,325012,0.0-6.0-3.0,2m993eAu0zpJKQ3i03jO,all,,RLx8JQkEuvYRERezyZEQ0YfghQ,UTrk4JAKq5lUxvdT8J6OEFCIc7,,,,,,,,,,,,,,,,,,,,,,,,,,,,,,,
instructions,66,330689,0.0-6.0-4.0,2m993eAu0zpJKQ3i03jO,all,,RLx8JQkEuvYRERezyZEQ0YfghQ,UTrk4JAKq5lUxvdT8J6OEFCIc7,dn_pt_trials_instructions,,,,,,"[{'page_index': 0, 'viewing_time': 5677}]",5677.0,False,64.0,,,,,,,,,,,,,,,,,,,,,
html-keyboard-response,67,330997,0.0-6.0-5.0-0.0-0.0,2m993eAu0zpJKQ3i03jO,all,,RLx8JQkEuvYRERezyZEQ0YfghQ,UTrk4JAKq5lUxvdT8J6OEFCIc7,fixation_cross,,,,,,,,,,"<div class=""fixation-cross"">+</div>",,,,,,,,,,,,,,,,,,,,
html-keyboard-response,68,333801,0.0-6.0-5.0-0.0-1.0,2m993eAu0zpJKQ3i03jO,all,,RLx8JQkEuvYRERezyZEQ0YfghQ,UTrk4JAKq5lUxvdT8J6OEFCIc7,dn_main_trial_version_A,,,,,,,2802.0,False,66.0,"<div id=""lottery_labels_container"">
                            <div>Lottery 1</div>
                            <div>Lottery 2</div>
                        </div>
                        <div id=""lottery_text_desc_container"">
                            <div id=""lottery_left_text"" class=""lottery_text""></div>
                            <div id=""lottery_right_text"" class=""lottery_text""></div>
                        </div>
                        <div id=""lotteries_container"">
                            <div id=""lottery_left_parent"" class=""lottery_parent"" "">
                                <div id=""lottery_left"" class=""lottery""></div>
                            </div>
                            <div id=""lottery_right_parent"" class=""lottery_parent"" "">
                                <div id=""lottery_right"" class=""lottery""></div>
                            </div>
                        </div>
                        <div id=""lottery_choices"">
                            <div class=""lottery_choice""><span>Draw from Lottery 1</span><br><span><i>left arrow</i></span></div>
                            <div class=""lottery_choice""><span>Draw from Lottery 2</span><br><span><i>right arrow</i></span></div>
                        </div>
                ",arrowleft,True,0.0,0.0,B,harmony,both,both,large,small,0.17,0.1,400.0,10.0,68.0,1.0,332.0,9.0,left,gold
html-keyboard-response,69,334813,0.0-6.0-5.0-0.0-2.0,2m993eAu0zpJKQ3i03jO,all,,RLx8JQkEuvYRERezyZEQ0YfghQ,UTrk4JAKq5lUxvdT8J6OEFCIc7,dn_trial_feedback,,,,,,,,,,"<p style=""font-size: 3em; color: gold; line-height: 2em;"">You drew a <b>gold coin</b>.</p>",,,,,,,,,,,,,,,,,,,,
html-keyboard-response,70,335127,0.0-6.0-5.0-0.0-0.1,2m993eAu0zpJKQ3i03jO,all,,RLx8JQkEuvYRERezyZEQ0YfghQ,UTrk4JAKq5lUxvdT8J6OEFCIc7,fixation_cross,,,,,,,,,,"<div class=""fixation-cross"">+</div>",,,,,,,,,,,,,,,,,,,,
html-keyboard-response,71,339953,0.0-6.0-5.0-0.0-1.1,2m993eAu0zpJKQ3i03jO,all,,RLx8JQkEuvYRERezyZEQ0YfghQ,UTrk4JAKq5lUxvdT8J6OEFCIc7,dn_main_trial_version_A,,,,,,,4824.0,False,70.0,"<div id=""lottery_labels_container"">
                            <div>Lottery 1</div>
                            <div>Lottery 2</div>
                        </div>
                        <div id=""lottery_text_desc_container"">
                            <div id=""lottery_left_text"" class=""lottery_text""></div>
                            <div id=""lottery_right_text"" class=""lottery_text""></div>
                        </div>
                        <div id=""lotteries_container"">
                            <div id=""lottery_left_parent"" class=""lottery_parent"" "">
                                <div id=""lottery_left"" class=""lottery""></div>
                            </div>
                            <div id=""lottery_right_parent"" class=""lottery_parent"" "">
                                <div id=""lottery_right"" class=""lottery""></div>
                            </div>
                        </div>
                        <div id=""lottery_choices"">
                            <div class=""lottery_choice""><span>Draw from Lottery 1</span><br><span><i>left arrow</i></span></div>
                            <div class=""lottery_choice""><span>Draw from Lottery 2</span><br><span><i>right arrow</i></span></div>
                        </div>
                ",arrowright,True,0.0,1.0,B,harmony,both,both,small,large,0.1,0.11,10.0,400.0,1.0,44.0,9.0,356.0,right,silver
html-keyboard-response,72,340966,0.0-6.0-5.0-0.0-2.1,2m993eAu0zpJKQ3i03jO,all,,RLx8JQkEuvYRERezyZEQ0YfghQ,UTrk4JAKq5lUxvdT8J6OEFCIc7,dn_trial_feedback,,,,,,,,,,"<p style=""font-size: 3em; color: white; line-height: 2em;"">You drew a <b>silver coin</b>.</p>",,,,,,,,,,,,,,,,,,,,
html-keyboard-response,73,341279,0.0-6.0-5.0-0.0-0.2,2m993eAu0zpJKQ3i03jO,all,,RLx8JQkEuvYRERezyZEQ0YfghQ,UTrk4JAKq5lUxvdT8J6OEFCIc7,fixation_cross,,,,,,,,,,"<div class=""fixation-cross"">+</div>",,,,,,,,,,,,,,,,,,,,
html-keyboard-response,74,349297,0.0-6.0-5.0-0.0-1.2,2m993eAu0zpJKQ3i03jO,all,,RLx8JQkEuvYRERezyZEQ0YfghQ,UTrk4JAKq5lUxvdT8J6OEFCIc7,dn_main_trial_version_A,,,,,,,8016.0,False,73.0,"<div id=""lottery_labels_container"">
                            <div>Lottery 1</div>
                            <div>Lottery 2</div>
                        </div>
                        <div id=""lottery_text_desc_container"">
                            <div id=""lottery_left_text"" class=""lottery_text""></div>
                            <div id=""lottery_right_text"" class=""lottery_text""></div>
                        </div>
                        <div id=""lotteries_container"">
                            <div id=""lottery_left_parent"" class=""lottery_parent"" "">
                                <div id=""lottery_left"" class=""lottery""></div>
                            </div>
                            <div id=""lottery_right_parent"" class=""lottery_parent"" "">
                                <div id=""lottery_right"" class=""lottery""></div>
                            </div>
                        </div>
                        <div id=""lottery_choices"">
                            <div class=""lottery_choice""><span>Draw from Lottery 1</span><br><span><i>left arrow</i></span></div>
                            <div class=""lottery_choice""><span>Draw from Lottery 2</span><br><span><i>right arrow</i></span></div>
                        </div>
                ",arrowleft,True,0.0,2.0,B,conflict,both,both,large,small,0.05,0.1,400.0,10.0,20.0,1.0,380.0,9.0,left,silver
html-keyboard-response,75,350305,0.0-6.0-5.0-0.0-2.2,2m993eAu0zpJKQ3i03jO,all,,RLx8JQkEuvYRERezyZEQ0YfghQ,UTrk4JAKq5lUxvdT8J6OEFCIc7,dn_trial_feedback,,,,,,,,,,"<p style=""font-size: 3em; color: white; line-height: 2em;"">You drew a <b>silver coin</b>.</p>",,,,,,,,,,,,,,,,,,,,
html-keyboard-response,76,350613,0.0-6.0-5.0-0.0-0.3,2m993eAu0zpJKQ3i03jO,all,,RLx8JQkEuvYRERezyZEQ0YfghQ,UTrk4JAKq5lUxvdT8J6OEFCIc7,fixation_cross,,,,,,,,,,"<div class=""fixation-cross"">+</div>",,,,,,,,,,,,,,,,,,,,
html-keyboard-response,77,352834,0.0-6.0-5.0-0.0-1.3,2m993eAu0zpJKQ3i03jO,all,,RLx8JQkEuvYRERezyZEQ0YfghQ,UTrk4JAKq5lUxvdT8J6OEFCIc7,dn_main_trial_version_A,,,,,,,2218.0,False,76.0,"<div id=""lottery_labels_container"">
                            <div>Lottery 1</div>
                            <div>Lottery 2</div>
                        </div>
                        <div id=""lottery_text_desc_container"">
                            <div id=""lottery_left_text"" class=""lottery_text""></div>
                            <div id=""lottery_right_text"" class=""lottery_text""></div>
                        </div>
                        <div id=""lotteries_container"">
                            <div id=""lottery_left_parent"" class=""lottery_parent"" "">
                                <div id=""lottery_left"" class=""lottery""></div>
                            </div>
                            <div id=""lottery_right_parent"" class=""lottery_parent"" "">
                                <div id=""lottery_right"" class=""lottery""></div>
                            </div>
                        </div>
                        <div id=""lottery_choices"">
                            <div class=""lottery_choice""><span>Draw from Lottery 1</span><br><span><i>left arrow</i></span></div>
                            <div class=""lottery_choice""><span>Draw from Lottery 2</span><br><span><i>right arrow</i></span></div>
                        </div>
                ",arrowright,True,0.0,3.0,B,conflict,both,both,small,large,0.2,0.15,10.0,400.0,2.0,60.0,8.0,340.0,right,silver
html-keyboard-response,78,353851,0.0-6.0-5.0-0.0-2.3,2m993eAu0zpJKQ3i03jO,all,,RLx8JQkEuvYRERezyZEQ0YfghQ,UTrk4JAKq5lUxvdT8J6OEFCIc7,dn_trial_feedback,,,,,,,,,,"<p style=""font-size: 3em; color: white; line-height: 2em;"">You drew a <b>silver coin</b>.</p>",,,,,,,,,,,,,,,,,,,,
html-keyboard-response,79,354162,0.0-6.0-5.0-0.0-0.4,2m993eAu0zpJKQ3i03jO,all,,RLx8JQkEuvYRERezyZEQ0YfghQ,UTrk4JAKq5lUxvdT8J6OEFCIc7,fixation_cross,,,,,,,,,,"<div class=""fixation-cross"">+</div>",,,,,,,,,,,,,,,,,,,,
html-keyboard-response,80,360322,0.0-6.0-5.0-0.0-1.4,2m993eAu0zpJKQ3i03jO,all,,RLx8JQkEuvYRERezyZEQ0YfghQ,UTrk4JAKq5lUxvdT8J6OEFCIc7,dn_main_trial_version_A,,,,,,,6158.0,False,79.0,"<div id=""lottery_labels_container"">
                            <div>Lottery 1</div>
                            <div>Lottery 2</div>
                        </div>
                        <div id=""lottery_text_desc_container"">
                            <div id=""lottery_left_text"" class=""lottery_text""></div>
                            <div id=""lottery_right_text"" class=""lottery_text""></div>
                        </div>
                        <div id=""lotteries_container"">
                            <div id=""lottery_left_parent"" class=""lottery_parent"" "">
                                <div id=""lottery_left"" class=""lottery""></div>
                            </div>
                            <div id=""lottery_right_parent"" class=""lottery_parent"" "">
                                <div id=""lottery_right"" class=""lottery""></div>
                            </div>
                        </div>
                        <div id=""lottery_choices"">
                            <div class=""lottery_choice""><span>Draw from Lottery 1</span><br><span><i>left arrow</i></span></div>
                            <div class=""lottery_choice""><span>Draw from Lottery 2</span><br><span><i>right arrow</i></span></div>
                        </div>
                ",arrowleft,True,0.0,4.0,B,harmony,both,both,small,large,0.1,0.12,10.0,400.0,1.0,48.0,9.0,352.0,left,silver
html-keyboard-response,81,361336,0.0-6.0-5.0-0.0-2.4,2m993eAu0zpJKQ3i03jO,all,,RLx8JQkEuvYRERezyZEQ0YfghQ,UTrk4JAKq5lUxvdT8J6OEFCIc7,dn_trial_feedback,,,,,,,,,,"<p style=""font-size: 3em; color: white; line-height: 2em;"">You drew a <b>silver coin</b>.</p>",,,,,,,,,,,,,,,,,,,,
html-keyboard-response,82,361643,0.0-6.0-5.0-0.0-0.5,2m993eAu0zpJKQ3i03jO,all,,RLx8JQkEuvYRERezyZEQ0YfghQ,UTrk4JAKq5lUxvdT8J6OEFCIc7,fixation_cross,,,,,,,,,,"<div class=""fixation-cross"">+</div>",,,,,,,,,,,,,,,,,,,,
html-keyboard-response,83,377650,0.0-6.0-5.0-0.0-1.5,2m993eAu0zpJKQ3i03jO,all,,RLx8JQkEuvYRERezyZEQ0YfghQ,UTrk4JAKq5lUxvdT8J6OEFCIc7,dn_main_trial_version_A,,,,,,,,True,82.0,"<div id=""lottery_labels_container"">
                            <div>Lottery 1</div>
                            <div>Lottery 2</div>
                        </div>
                        <div id=""lottery_text_desc_container"">
                            <div id=""lottery_left_text"" class=""lottery_text""></div>
                            <div id=""lottery_right_text"" class=""lottery_text""></div>
                        </div>
                        <div id=""lotteries_container"">
                            <div id=""lottery_left_parent"" class=""lottery_parent"" "">
                                <div id=""lottery_left"" class=""lottery""></div>
                            </div>
                            <div id=""lottery_right_parent"" class=""lottery_parent"" "">
                                <div id=""lottery_right"" class=""lottery""></div>
                            </div>
                        </div>
                        <div id=""lottery_choices"">
                            <div class=""lottery_choice""><span>Draw from Lottery 1</span><br><span><i>left arrow</i></span></div>
                            <div class=""lottery_choice""><span>Draw from Lottery 2</span><br><span><i>right arrow</i></span></div>
                        </div>
                ",,True,0.0,5.0,B,harmony,both,both,large,small,0.36,0.3,400.0,10.0,144.0,3.0,256.0,7.0,,
html-keyboard-response,84,378668,0.0-6.0-5.0-0.0-2.5,2m993eAu0zpJKQ3i03jO,all,,RLx8JQkEuvYRERezyZEQ0YfghQ,UTrk4JAKq5lUxvdT8J6OEFCIc7,dn_trial_feedback,,,,,,,,,,"<p style=""font-size: 3em; color: red;"">X<br><br>TOO SLOW</p>",,,,,,,,,,,,,,,,,,,,
html-keyboard-response,85,378976,0.0-6.0-5.0-0.0-0.6,2m993eAu0zpJKQ3i03jO,all,,RLx8JQkEuvYRERezyZEQ0YfghQ,UTrk4JAKq5lUxvdT8J6OEFCIc7,fixation_cross,,,,,,,,,,"<div class=""fixation-cross"">+</div>",,,,,,,,,,,,,,,,,,,,
html-keyboard-response,86,384777,0.0-6.0-5.0-0.0-1.6,2m993eAu0zpJKQ3i03jO,all,,RLx8JQkEuvYRERezyZEQ0YfghQ,UTrk4JAKq5lUxvdT8J6OEFCIc7,dn_main_trial_version_A,,,,,,,5799.0,False,85.0,"<div id=""lottery_labels_container"">
                            <div>Lottery 1</div>
                            <div>Lottery 2</div>
                        </div>
                        <div id=""lottery_text_desc_container"">
                            <div id=""lottery_left_text"" class=""lottery_text""></div>
                            <div id=""lottery_right_text"" class=""lottery_text""></div>
                        </div>
                        <div id=""lotteries_container"">
                            <div id=""lottery_left_parent"" class=""lottery_parent"" "">
                                <div id=""lottery_left"" class=""lottery""></div>
                            </div>
                            <div id=""lottery_right_parent"" class=""lottery_parent"" "">
                                <div id=""lottery_right"" class=""lottery""></div>
                            </div>
                        </div>
                        <div id=""lottery_choices"">
                            <div class=""lottery_choice""><span>Draw from Lottery 1</span><br><span><i>left arrow</i></span></div>
                            <div class=""lottery_choice""><span>Draw from Lottery 2</span><br><span><i>right arrow</i></span></div>
                        </div>
                ",arrowright,True,0.0,6.0,B,harmony,both,both,large,small,0.21,0.2,400.0,10.0,84.0,2.0,316.0,8.0,right,gold
html-keyboard-response,87,385792,0.0-6.0-5.0-0.0-2.6,2m993eAu0zpJKQ3i03jO,all,,RLx8JQkEuvYRERezyZEQ0YfghQ,UTrk4JAKq5lUxvdT8J6OEFCIc7,dn_trial_feedback,,,,,,,,,,"<p style=""font-size: 3em; color: gold; line-height: 2em;"">You drew a <b>gold coin</b>.</p>",,,,,,,,,,,,,,,,,,,,
html-keyboard-response,88,386094,0.0-6.0-5.0-0.0-0.7,2m993eAu0zpJKQ3i03jO,all,,RLx8JQkEuvYRERezyZEQ0YfghQ,UTrk4JAKq5lUxvdT8J6OEFCIc7,fixation_cross,,,,,,,,,,"<div class=""fixation-cross"">+</div>",,,,,,,,,,,,,,,,,,,,
html-keyboard-response,89,388280,0.0-6.0-5.0-0.0-1.7,2m993eAu0zpJKQ3i03jO,all,,RLx8JQkEuvYRERezyZEQ0YfghQ,UTrk4JAKq5lUxvdT8J6OEFCIc7,dn_main_trial_version_A,,,,,,,2185.0,False,89.0,"<div id=""lottery_labels_container"">
                            <div>Lottery 1</div>
                            <div>Lottery 2</div>
                        </div>
                        <div id=""lottery_text_desc_container"">
                            <div id=""lottery_left_text"" class=""lottery_text""></div>
                            <div id=""lottery_right_text"" class=""lottery_text""></div>
                        </div>
                        <div id=""lotteries_container"">
                            <div id=""lottery_left_parent"" class=""lottery_parent"" "">
                                <div id=""lottery_left"" class=""lottery""></div>
                            </div>
                            <div id=""lottery_right_parent"" class=""lottery_parent"" "">
                                <div id=""lottery_right"" class=""lottery""></div>
                            </div>
                        </div>
                        <div id=""lottery_choices"">
                            <div class=""lottery_choice""><span>Draw from Lottery 1</span><br><span><i>left arrow</i></span></div>
                            <div class=""lottery_choice""><span>Draw from Lottery 2</span><br><span><i>right arrow</i></span></div>
                        </div>
                ",arrowright,True,0.0,7.0,B,harmony,both,both,small,large,0.3,0.38,10.0,400.0,3.0,152.0,7.0,248.0,right,gold
html-keyboard-response,90,389294,0.0-6.0-5.0-0.0-2.7,2m993eAu0zpJKQ3i03jO,all,,RLx8JQkEuvYRERezyZEQ0YfghQ,UTrk4JAKq5lUxvdT8J6OEFCIc7,dn_trial_feedback,,,,,,,,,,"<p style=""font-size: 3em; color: gold; line-height: 2em;"">You drew a <b>gold coin</b>.</p>",,,,,,,,,,,,,,,,,,,,
instructions,91,391842,0.0-6.0-6.0,2m993eAu0zpJKQ3i03jO,all,,RLx8JQkEuvYRERezyZEQ0YfghQ,UTrk4JAKq5lUxvdT8J6OEFCIc7,dn_test_trials_instructions,,,,,,"[{'page_index': 0, 'viewing_time': 2547}]",2547.0,False,92.0,,,,,,,,,,,,,,,,,,,,,
html-keyboard-response,92,392144,0.0-6.0-7.0-0.0-0.0,2m993eAu0zpJKQ3i03jO,all,,RLx8JQkEuvYRERezyZEQ0YfghQ,UTrk4JAKq5lUxvdT8J6OEFCIc7,fixation_cross,,,,,,,,,,"<div class=""fixation-cross"">+</div>",,,,,,,,,,,,,,,,,,,,
html-keyboard-response,93,397908,0.0-6.0-7.0-0.0-1.0,2m993eAu0zpJKQ3i03jO,all,,RLx8JQkEuvYRERezyZEQ0YfghQ,UTrk4JAKq5lUxvdT8J6OEFCIc7,dn_main_trial_version_A,,,,,,,5763.0,False,94.0,"<div id=""lottery_labels_container"">
                            <div>Lottery 1</div>
                            <div>Lottery 2</div>
                        </div>
                        <div id=""lottery_text_desc_container"">
                            <div id=""lottery_left_text"" class=""lottery_text""></div>
                            <div id=""lottery_right_text"" class=""lottery_text""></div>
                        </div>
                        <div id=""lotteries_container"">
                            <div id=""lottery_left_parent"" class=""lottery_parent"" "">
                                <div id=""lottery_left"" class=""lottery""></div>
                            </div>
                            <div id=""lottery_right_parent"" class=""lottery_parent"" "">
                                <div id=""lottery_right"" class=""lottery""></div>
                            </div>
                        </div>
                        <div id=""lottery_choices"">
                            <div class=""lottery_choice""><span>Draw from Lottery 1</span><br><span><i>left arrow</i></span></div>
                            <div class=""lottery_choice""><span>Draw from Lottery 2</span><br><span><i>right arrow</i></span></div>
                        </div>
                ",arrowright,False,0.0,0.0,B,harmony,both,both,small,large,0.1,0.15,10.0,400.0,1.0,60.0,9.0,340.0,right,silver
html-keyboard-response,94,398918,0.0-6.0-7.0-0.0-2.0,2m993eAu0zpJKQ3i03jO,all,,RLx8JQkEuvYRERezyZEQ0YfghQ,UTrk4JAKq5lUxvdT8J6OEFCIc7,dn_trial_feedback,,,,,,,,,,"<p style=""font-size: 3em; color: white; line-height: 2em;"">You drew a <b>silver coin</b>.</p>",,,,,,,,,,,,,,,,,,,,
html-keyboard-response,95,399225,0.0-6.0-7.0-0.0-0.1,2m993eAu0zpJKQ3i03jO,all,,RLx8JQkEuvYRERezyZEQ0YfghQ,UTrk4JAKq5lUxvdT8J6OEFCIc7,fixation_cross,,,,,,,,,,"<div class=""fixation-cross"">+</div>",,,,,,,,,,,,,,,,,,,,
html-keyboard-response,96,403401,0.0-6.0-7.0-0.0-1.1,2m993eAu0zpJKQ3i03jO,all,,RLx8JQkEuvYRERezyZEQ0YfghQ,UTrk4JAKq5lUxvdT8J6OEFCIc7,dn_main_trial_version_A,,,,,,,4174.0,False,97.0,"<div id=""lottery_labels_container"">
                            <div>Lottery 1</div>
                            <div>Lottery 2</div>
                        </div>
                        <div id=""lottery_text_desc_container"">
                            <div id=""lottery_left_text"" class=""lottery_text""></div>
                            <div id=""lottery_right_text"" class=""lottery_text""></div>
                        </div>
                        <div id=""lotteries_container"">
                            <div id=""lottery_left_parent"" class=""lottery_parent"" "">
                                <div id=""lottery_left"" class=""lottery""></div>
                            </div>
                            <div id=""lottery_right_parent"" class=""lottery_parent"" "">
                                <div id=""lottery_right"" class=""lottery""></div>
                            </div>
                        </div>
                        <div id=""lottery_choices"">
                            <div class=""lottery_choice""><span>Draw from Lottery 1</span><br><span><i>left arrow</i></span></div>
                            <div class=""lottery_choice""><span>Draw from Lottery 2</span><br><span><i>right arrow</i></span></div>
                        </div>
                ",arrowleft,False,0.0,1.0,B,conflict,both,both,large,small,0.15,0.2,400.0,10.0,60.0,2.0,340.0,8.0,left,silver
html-keyboard-response,97,404404,0.0-6.0-7.0-0.0-2.1,2m993eAu0zpJKQ3i03jO,all,,RLx8JQkEuvYRERezyZEQ0YfghQ,UTrk4JAKq5lUxvdT8J6OEFCIc7,dn_trial_feedback,,,,,,,,,,"<p style=""font-size: 3em; color: white; line-height: 2em;"">You drew a <b>silver coin</b>.</p>",,,,,,,,,,,,,,,,,,,,
html-keyboard-response,98,404711,0.0-6.0-7.0-0.0-0.2,2m993eAu0zpJKQ3i03jO,all,,RLx8JQkEuvYRERezyZEQ0YfghQ,UTrk4JAKq5lUxvdT8J6OEFCIc7,fixation_cross,,,,,,,,,,"<div class=""fixation-cross"">+</div>",,,,,,,,,,,,,,,,,,,,
html-keyboard-response,99,406761,0.0-6.0-7.0-0.0-1.2,2m993eAu0zpJKQ3i03jO,all,,RLx8JQkEuvYRERezyZEQ0YfghQ,UTrk4JAKq5lUxvdT8J6OEFCIc7,dn_main_trial_version_A,,,,,,,2049.0,False,100.0,"<div id=""lottery_labels_container"">
                            <div>Lottery 1</div>
                            <div>Lottery 2</div>
                        </div>
                        <div id=""lottery_text_desc_container"">
                            <div id=""lottery_left_text"" class=""lottery_text""></div>
                            <div id=""lottery_right_text"" class=""lottery_text""></div>
                        </div>
                        <div id=""lotteries_container"">
                            <div id=""lottery_left_parent"" class=""lottery_parent"" "">
                                <div id=""lottery_left"" class=""lottery""></div>
                            </div>
                            <div id=""lottery_right_parent"" class=""lottery_parent"" "">
                                <div id=""lottery_right"" class=""lottery""></div>
                            </div>
                        </div>
                        <div id=""lottery_choices"">
                            <div class=""lottery_choice""><span>Draw from Lottery 1</span><br><span><i>left arrow</i></span></div>
                            <div class=""lottery_choice""><span>Draw from Lottery 2</span><br><span><i>right arrow</i></span></div>
                        </div>
                ",arrowright,False,0.0,2.0,B,harmony,both,both,small,large,0.3,0.38,10.0,400.0,3.0,152.0,7.0,248.0,right,silver
html-keyboard-response,100,407766,0.0-6.0-7.0-0.0-2.2,2m993eAu0zpJKQ3i03jO,all,,RLx8JQkEuvYRERezyZEQ0YfghQ,UTrk4JAKq5lUxvdT8J6OEFCIc7,dn_trial_feedback,,,,,,,,,,"<p style=""font-size: 3em; color: white; line-height: 2em;"">You drew a <b>silver coin</b>.</p>",,,,,,,,,,,,,,,,,,,,
html-keyboard-response,101,408077,0.0-6.0-7.0-0.0-0.3,2m993eAu0zpJKQ3i03jO,all,,RLx8JQkEuvYRERezyZEQ0YfghQ,UTrk4JAKq5lUxvdT8J6OEFCIc7,fixation_cross,,,,,,,,,,"<div class=""fixation-cross"">+</div>",,,,,,,,,,,,,,,,,,,,
html-keyboard-response,102,411393,0.0-6.0-7.0-0.0-1.3,2m993eAu0zpJKQ3i03jO,all,,RLx8JQkEuvYRERezyZEQ0YfghQ,UTrk4JAKq5lUxvdT8J6OEFCIc7,dn_main_trial_version_A,,,,,,,3314.0,False,103.0,"<div id=""lottery_labels_container"">
                            <div>Lottery 1</div>
                            <div>Lottery 2</div>
                        </div>
                        <div id=""lottery_text_desc_container"">
                            <div id=""lottery_left_text"" class=""lottery_text""></div>
                            <div id=""lottery_right_text"" class=""lottery_text""></div>
                        </div>
                        <div id=""lotteries_container"">
                            <div id=""lottery_left_parent"" class=""lottery_parent"" "">
                                <div id=""lottery_left"" class=""lottery""></div>
                            </div>
                            <div id=""lottery_right_parent"" class=""lottery_parent"" "">
                                <div id=""lottery_right"" class=""lottery""></div>
                            </div>
                        </div>
                        <div id=""lottery_choices"">
                            <div class=""lottery_choice""><span>Draw from Lottery 1</span><br><span><i>left arrow</i></span></div>
                            <div class=""lottery_choice""><span>Draw from Lottery 2</span><br><span><i>right arrow</i></span></div>
                        </div>
                ",arrowright,False,0.0,3.0,B,harmony,both,both,large,small,0.37,0.3,400.0,10.0,148.0,3.0,252.0,7.0,right,silver
html-keyboard-response,103,412403,0.0-6.0-7.0-0.0-2.3,2m993eAu0zpJKQ3i03jO,all,,RLx8JQkEuvYRERezyZEQ0YfghQ,UTrk4JAKq5lUxvdT8J6OEFCIc7,dn_trial_feedback,,,,,,,,,,"<p style=""font-size: 3em; color: white; line-height: 2em;"">You drew a <b>silver coin</b>.</p>",,,,,,,,,,,,,,,,,,,,
html-keyboard-response,104,412713,0.0-6.0-7.0-0.0-0.4,2m993eAu0zpJKQ3i03jO,all,,RLx8JQkEuvYRERezyZEQ0YfghQ,UTrk4JAKq5lUxvdT8J6OEFCIc7,fixation_cross,,,,,,,,,,"<div class=""fixation-cross"">+</div>",,,,,,,,,,,,,,,,,,,,
html-keyboard-response,105,417081,0.0-6.0-7.0-0.0-1.4,2m993eAu0zpJKQ3i03jO,all,,RLx8JQkEuvYRERezyZEQ0YfghQ,UTrk4JAKq5lUxvdT8J6OEFCIc7,dn_main_trial_version_A,,,,,,,4367.0,False,106.0,"<div id=""lottery_labels_container"">
                            <div>Lottery 1</div>
                            <div>Lottery 2</div>
                        </div>
                        <div id=""lottery_text_desc_container"">
                            <div id=""lottery_left_text"" class=""lottery_text""></div>
                            <div id=""lottery_right_text"" class=""lottery_text""></div>
                        </div>
                        <div id=""lotteries_container"">
                            <div id=""lottery_left_parent"" class=""lottery_parent"" "">
                                <div id=""lottery_left"" class=""lottery""></div>
                            </div>
                            <div id=""lottery_right_parent"" class=""lottery_parent"" "">
                                <div id=""lottery_right"" class=""lottery""></div>
                            </div>
                        </div>
                        <div id=""lottery_choices"">
                            <div class=""lottery_choice""><span>Draw from Lottery 1</span><br><span><i>left arrow</i></span></div>
                            <div class=""lottery_choice""><span>Draw from Lottery 2</span><br><span><i>right arrow</i></span></div>
                        </div>
                ",arrowright,False,0.0,4.0,B,conflict,both,both,large,small,0.06,0.1,400.0,10.0,24.0,1.0,376.0,9.0,right,gold
html-keyboard-response,106,418094,0.0-6.0-7.0-0.0-2.4,2m993eAu0zpJKQ3i03jO,all,,RLx8JQkEuvYRERezyZEQ0YfghQ,UTrk4JAKq5lUxvdT8J6OEFCIc7,dn_trial_feedback,,,,,,,,,,"<p style=""font-size: 3em; color: gold; line-height: 2em;"">You drew a <b>gold coin</b>.</p>",,,,,,,,,,,,,,,,,,,,
html-keyboard-response,107,418410,0.0-6.0-7.0-0.0-0.5,2m993eAu0zpJKQ3i03jO,all,,RLx8JQkEuvYRERezyZEQ0YfghQ,UTrk4JAKq5lUxvdT8J6OEFCIc7,fixation_cross,,,,,,,,,,"<div class=""fixation-cross"">+</div>",,,,,,,,,,,,,,,,,,,,
html-keyboard-response,108,424769,0.0-6.0-7.0-0.0-1.5,2m993eAu0zpJKQ3i03jO,all,,RLx8JQkEuvYRERezyZEQ0YfghQ,UTrk4JAKq5lUxvdT8J6OEFCIc7,dn_main_trial_version_A,,,,,,,6358.0,False,110.0,"<div id=""lottery_labels_container"">
                            <div>Lottery 1</div>
                            <div>Lottery 2</div>
                        </div>
                        <div id=""lottery_text_desc_container"">
                            <div id=""lottery_left_text"" class=""lottery_text""></div>
                            <div id=""lottery_right_text"" class=""lottery_text""></div>
                        </div>
                        <div id=""lotteries_container"">
                            <div id=""lottery_left_parent"" class=""lottery_parent"" "">
                                <div id=""lottery_left"" class=""lottery""></div>
                            </div>
                            <div id=""lottery_right_parent"" class=""lottery_parent"" "">
                                <div id=""lottery_right"" class=""lottery""></div>
                            </div>
                        </div>
                        <div id=""lottery_choices"">
                            <div class=""lottery_choice""><span>Draw from Lottery 1</span><br><span><i>left arrow</i></span></div>
                            <div class=""lottery_choice""><span>Draw from Lottery 2</span><br><span><i>right arrow</i></span></div>
                        </div>
                ",arrowleft,False,0.0,5.0,B,harmony,both,both,small,large,0.3,0.3399999999999999,10.0,400.0,3.0,136.0,7.0,264.0,left,silver
html-keyboard-response,109,425783,0.0-6.0-7.0-0.0-2.5,2m993eAu0zpJKQ3i03jO,all,,RLx8JQkEuvYRERezyZEQ0YfghQ,UTrk4JAKq5lUxvdT8J6OEFCIc7,dn_trial_feedback,,,,,,,,,,"<p style=""font-size: 3em; color: white; line-height: 2em;"">You drew a <b>silver coin</b>.</p>",,,,,,,,,,,,,,,,,,,,
html-keyboard-response,110,426094,0.0-6.0-7.0-0.0-0.6,2m993eAu0zpJKQ3i03jO,all,,RLx8JQkEuvYRERezyZEQ0YfghQ,UTrk4JAKq5lUxvdT8J6OEFCIc7,fixation_cross,,,,,,,,,,"<div class=""fixation-cross"">+</div>",,,,,,,,,,,,,,,,,,,,
html-keyboard-response,111,439010,0.0-6.0-7.0-0.0-1.6,2m993eAu0zpJKQ3i03jO,all,,RLx8JQkEuvYRERezyZEQ0YfghQ,UTrk4JAKq5lUxvdT8J6OEFCIc7,dn_main_trial_version_A,,,,,,,12915.0,False,113.0,"<div id=""lottery_labels_container"">
                            <div>Lottery 1</div>
                            <div>Lottery 2</div>
                        </div>
                        <div id=""lottery_text_desc_container"">
                            <div id=""lottery_left_text"" class=""lottery_text""></div>
                            <div id=""lottery_right_text"" class=""lottery_text""></div>
                        </div>
                        <div id=""lotteries_container"">
                            <div id=""lottery_left_parent"" class=""lottery_parent"" "">
                                <div id=""lottery_left"" class=""lottery""></div>
                            </div>
                            <div id=""lottery_right_parent"" class=""lottery_parent"" "">
                                <div id=""lottery_right"" class=""lottery""></div>
                            </div>
                        </div>
                        <div id=""lottery_choices"">
                            <div class=""lottery_choice""><span>Draw from Lottery 1</span><br><span><i>left arrow</i></span></div>
                            <div class=""lottery_choice""><span>Draw from Lottery 2</span><br><span><i>right arrow</i></span></div>
                        </div>
                ",arrowleft,False,0.0,6.0,B,harmony,both,both,large,small,0.32,0.3,400.0,10.0,128.0,3.0,272.0,7.0,left,silver
html-keyboard-response,112,440016,0.0-6.0-7.0-0.0-2.6,2m993eAu0zpJKQ3i03jO,all,,RLx8JQkEuvYRERezyZEQ0YfghQ,UTrk4JAKq5lUxvdT8J6OEFCIc7,dn_trial_feedback,,,,,,,,,,"<p style=""font-size: 3em; color: white; line-height: 2em;"">You drew a <b>silver coin</b>.</p>",,,,,,,,,,,,,,,,,,,,
html-keyboard-response,113,440327,0.0-6.0-7.0-0.0-0.7,2m993eAu0zpJKQ3i03jO,all,,RLx8JQkEuvYRERezyZEQ0YfghQ,UTrk4JAKq5lUxvdT8J6OEFCIc7,fixation_cross,,,,,,,,,,"<div class=""fixation-cross"">+</div>",,,,,,,,,,,,,,,,,,,,
html-keyboard-response,114,455443,0.0-6.0-7.0-0.0-1.7,2m993eAu0zpJKQ3i03jO,all,,RLx8JQkEuvYRERezyZEQ0YfghQ,UTrk4JAKq5lUxvdT8J6OEFCIc7,dn_main_trial_version_A,,,,,,,15115.0,False,116.0,"<div id=""lottery_labels_container"">
                            <div>Lottery 1</div>
                            <div>Lottery 2</div>
                        </div>
                        <div id=""lottery_text_desc_container"">
                            <div id=""lottery_left_text"" class=""lottery_text""></div>
                            <div id=""lottery_right_text"" class=""lottery_text""></div>
                        </div>
                        <div id=""lotteries_container"">
                            <div id=""lottery_left_parent"" class=""lottery_parent"" "">
                                <div id=""lottery_left"" class=""lottery""></div>
                            </div>
                            <div id=""lottery_right_parent"" class=""lottery_parent"" "">
                                <div id=""lottery_right"" class=""lottery""></div>
                            </div>
                        </div>
                        <div id=""lottery_choices"">
                            <div class=""lottery_choice""><span>Draw from Lottery 1</span><br><span><i>left arrow</i></span></div>
                            <div class=""lottery_choice""><span>Draw from Lottery 2</span><br><span><i>right arrow</i></span></div>
                        </div>
                ",arrowleft,False,0.0,7.0,B,conflict,both,both,small,large,0.3,0.2199999999999999,10.0,400.0,3.0,88.0,7.0,312.0,left,silver
html-keyboard-response,115,456448,0.0-6.0-7.0-0.0-2.7,2m993eAu0zpJKQ3i03jO,all,,RLx8JQkEuvYRERezyZEQ0YfghQ,UTrk4JAKq5lUxvdT8J6OEFCIc7,dn_trial_feedback,,,,,,,,,,"<p style=""font-size: 3em; color: white; line-height: 2em;"">You drew a <b>silver coin</b>.</p>",,,,,,,,,,,,,,,,,,,,
call-function,116,456449,0.0-6.0-8.0,2m993eAu0zpJKQ3i03jO,all,,RLx8JQkEuvYRERezyZEQ0YfghQ,UTrk4JAKq5lUxvdT8J6OEFCIc7,,,,,,,,,,,,,,,,,,,,,,,,,,,,,,,
html-button-response,117,459496,0.0-6.0-9.0,2m993eAu0zpJKQ3i03jO,all,,RLx8JQkEuvYRERezyZEQ0YfghQ,UTrk4JAKq5lUxvdT8J6OEFCIc7,feedback_Denominator Neglect_B,,,,,,,3046.0,,,"
                    <p class=""instructions-title"">Feedback?</p>
                    <p>If something went wrong during the last task or you think we can improve it, please leave any and all comments you have here.</p>
                    <div style=""margin-bottom: 3vh"">
                        <textarea id=""task_feedback"" style=""width: 50vw; height: 15vh;""></textarea>
                    </div>
                ",,,,,,,,,,,,,,,,,,,,
call-function,118,459497,0.0-6.0-10.0,2m993eAu0zpJKQ3i03jO,all,,RLx8JQkEuvYRERezyZEQ0YfghQ,UTrk4JAKq5lUxvdT8J6OEFCIc7,,,,,,,,,,,,,,,,,,,,,,,,,,,,,,,
html-keyboard-response,119,459498,0.0-6.0-12.0,2m993eAu0zpJKQ3i03jO,all,,RLx8JQkEuvYRERezyZEQ0YfghQ,UTrk4JAKq5lUxvdT8J6OEFCIc7,async_data_save,,,,Denominator Neglect_B__completed,3.0,,,,,,,,,,,,,,,,,,,,,,,,,
call-function,120,459499,0.0-8.0,2m993eAu0zpJKQ3i03jO,all,,RLx8JQkEuvYRERezyZEQ0YfghQ,UTrk4JAKq5lUxvdT8J6OEFCIc7,,,,,,,,,,,,,,,,,,,,,,,,,,,,,,,
html-keyboard-response,121,459499,0.0-9.0,2m993eAu0zpJKQ3i03jO,all,,RLx8JQkEuvYRERezyZEQ0YfghQ,UTrk4JAKq5lUxvdT8J6OEFCIc7,async_data_save,,,,experiment__completed,4.0,,,,,,,,,,,,,,,,,,,,,,,,,
