"session_id","session_restart_id","time_elapsed","trial_index","custom_timer_ended_trial","rt","cfs_id","cfs_response"
"016SsHMbVS1ns2Qxcmk4hHRgSH","cTUFCC0UsYwePsDP5ScoGOXR9P",2246255,181,FALSE,76234,"['trinary_A', 'trinary_B', 'trinary_C', 'trinary_AB', 'trinary_BC']","['13', '12', '88', '13', '90']"
"016SsHMbVS1ns2Qxcmk4hHRgSH","cTUFCC0UsYwePsDP5ScoGOXR9P",2285470,182,FALSE,39210,"['binary_statepop1', 'binary_statearea1', 'binary_gdp1']","['94', '100', '87']"
"016SsHMbVS1ns2Qxcmk4hHRgSH","cTUFCC0UsYwePsDP5ScoGOXR9P",2307363,183,FALSE,21890,"['binary_statepop2', 'binary_statearea2', 'binary_gdp2']","['7', '6', '3']"
"016SsHMbVS1ns2Qxcmk4hHRgSH","cTUFCC0UsYwePsDP5ScoGOXR9P",2332165,184,FALSE,24798,"['time1', 'time2', 'time3']","['36', '43', '36']"
"016SsHMbVS1ns2Qxcmk4hHRgSH","cTUFCC0UsYwePsDP5ScoGOXR9P",2346655,185,FALSE,14486,"['time4', 'time5', 'time6']","['29', '35', '38']"
"016SsHMbVS1ns2Qxcmk4hHRgSH","cTUFCC0UsYwePsDP5ScoGOXR9P",2369419,186,FALSE,22759,"['space1', 'space2', 'space3']","['61', '68', '75']"
"016SsHMbVS1ns2Qxcmk4hHRgSH","cTUFCC0UsYwePsDP5ScoGOXR9P",2395011,187,FALSE,25588,"['space4', 'space5', 'space6']","['66', '67', '67']"
"016SsHMbVS1ns2Qxcmk4hHRgSH","cTUFCC0UsYwePsDP5ScoGOXR9P",2417589,188,FALSE,22574,"['confidence_interval1', 'confidence_interval2', 'confidence_interval3']","['70', '47', '50']"
"02QWkclNXRGICktZzGbALKgOXn","0LA5VsQ6bM4SkkRpi1z7Y9kiys",1969201,155,FALSE,54994,"['trinary_A', 'trinary_B', 'trinary_C', 'trinary_AB', 'trinary_BC']","['6', '9', '91', '9', '94']"
"02QWkclNXRGICktZzGbALKgOXn","0LA5VsQ6bM4SkkRpi1z7Y9kiys",2014373,156,FALSE,45161,"['binary_statepop1', 'binary_statearea1', 'binary_gdp1']","['49', '0', '78']"
"02QWkclNXRGICktZzGbALKgOXn","0LA5VsQ6bM4SkkRpi1z7Y9kiys",2053797,157,FALSE,39416,"['binary_statepop2', 'binary_statearea2', 'binary_gdp2']","['100', '66', '20']"
"02QWkclNXRGICktZzGbALKgOXn","0LA5VsQ6bM4SkkRpi1z7Y9kiys",2067671,158,FALSE,13868,"['time1', 'time2', 'time3']","['82', '95', '100']"
"02QWkclNXRGICktZzGbALKgOXn","0LA5VsQ6bM4SkkRpi1z7Y9kiys",2080866,159,FALSE,13190,"['time4', 'time5', 'time6']","['30', '41', '52']"
"02QWkclNXRGICktZzGbALKgOXn","0LA5VsQ6bM4SkkRpi1z7Y9kiys",2102929,160,FALSE,22057,"['space1', 'space2', 'space3']","['30', '39', '100']"
"02QWkclNXRGICktZzGbALKgOXn","0LA5VsQ6bM4SkkRpi1z7Y9kiys",2121712,161,FALSE,18778,"['space4', 'space5', 'space6']","['38', '57', '89']"
"02QWkclNXRGICktZzGbALKgOXn","0LA5VsQ6bM4SkkRpi1z7Y9kiys",2135565,162,FALSE,13848,"['confidence_interval1', 'confidence_interval2', 'confidence_interval3']","['29', '64', '89']"
"08JvGfUwcNXzbgM6Uw9OTeVzMT","p5DBfZUaAeVH1hR4mBTZ7aU6OE",430046,20,TRUE,101013,"['trinary_A', 'trinary_B', 'trinary_C', 'trinary_AB', 'trinary_BC']","['38', '29', '12', '11', '8']"
"08JvGfUwcNXzbgM6Uw9OTeVzMT","p5DBfZUaAeVH1hR4mBTZ7aU6OE",491719,21,TRUE,61646,"['binary_statepop1', 'binary_statearea1', 'binary_gdp1']","['67', '0', '0']"
"08JvGfUwcNXzbgM6Uw9OTeVzMT","p5DBfZUaAeVH1hR4mBTZ7aU6OE",524484,22,FALSE,32733,"['binary_statepop2', 'binary_statearea2', 'binary_gdp2']","['51', '29', '18']"
"08JvGfUwcNXzbgM6Uw9OTeVzMT","p5DBfZUaAeVH1hR4mBTZ7aU6OE",585526,23,TRUE,61022,"['time1', 'time2', 'time3']","['0', '0', '0']"
"08JvGfUwcNXzbgM6Uw9OTeVzMT","p5DBfZUaAeVH1hR4mBTZ7aU6OE",646702,24,TRUE,61154,"['time4', 'time5', 'time6']","['0', '0', '0']"
"08JvGfUwcNXzbgM6Uw9OTeVzMT","p5DBfZUaAeVH1hR4mBTZ7aU6OE",1972393,25,FALSE,353901,"['space1', 'space2', 'space3']","['9', '22', '69']"
"08JvGfUwcNXzbgM6Uw9OTeVzMT","p5DBfZUaAeVH1hR4mBTZ7aU6OE",1984612,26,FALSE,12196,"['space4', 'space5', 'space6']","['35', '58', '98']"
"08JvGfUwcNXzbgM6Uw9OTeVzMT","p5DBfZUaAeVH1hR4mBTZ7aU6OE",2032626,27,FALSE,47996,"['confidence_interval1', 'confidence_interval2', 'confidence_interval3']","['100', '100', '100']"
"09Sw3t0YLj302lra5gkQlLEMwE","tSVr1jFY0oLEEbRYQciHBJ7oTh",1416924,167,FALSE,96079,"['trinary_A', 'trinary_B', 'trinary_C', 'trinary_AB', 'trinary_BC']","['2', '6', '90', '9', '94']"
"09Sw3t0YLj302lra5gkQlLEMwE","tSVr1jFY0oLEEbRYQciHBJ7oTh",1469944,168,FALSE,53009,"['binary_statepop1', 'binary_statearea1', 'binary_gdp1']","['70', '68', '59']"
"09Sw3t0YLj302lra5gkQlLEMwE","tSVr1jFY0oLEEbRYQciHBJ7oTh",1482046,169,FALSE,12094,"['binary_statepop2', 'binary_statearea2', 'binary_gdp2']","['29', '31', '41']"
"09Sw3t0YLj302lra5gkQlLEMwE","tSVr1jFY0oLEEbRYQciHBJ7oTh",1536781,170,FALSE,54729,"['time1', 'time2', 'time3']","['2', '6', '10']"
"09Sw3t0YLj302lra5gkQlLEMwE","tSVr1jFY0oLEEbRYQciHBJ7oTh",1592469,171,FALSE,55682,"['time4', 'time5', 'time6']","['19', '36', '49']"
"09Sw3t0YLj302lra5gkQlLEMwE","tSVr1jFY0oLEEbRYQciHBJ7oTh",1635210,172,FALSE,42736,"['space1', 'space2', 'space3']","['69', '90', '99']"
"09Sw3t0YLj302lra5gkQlLEMwE","tSVr1jFY0oLEEbRYQciHBJ7oTh",1676844,173,FALSE,41627,"['space4', 'space5', 'space6']","['14', '49', '99']"
"09Sw3t0YLj302lra5gkQlLEMwE","tSVr1jFY0oLEEbRYQciHBJ7oTh",1732433,174,FALSE,55582,"['confidence_interval1', 'confidence_interval2', 'confidence_interval3']","['90', '92', '94']"
"0bjDzRkHTDdAUc8E3JPJxkyVYK","zsBfeBSdE7vxtgIbfVOykEXPpx",1735391,576,FALSE,42907,"['trinary_A', 'trinary_B', 'trinary_C', 'trinary_AB', 'trinary_BC']","['37', '43', '54', '47', '54']"
"0bjDzRkHTDdAUc8E3JPJxkyVYK","zsBfeBSdE7vxtgIbfVOykEXPpx",1764279,577,FALSE,28882,"['binary_statepop1', 'binary_statearea1', 'binary_gdp1']","['66', '67', '84']"
"0bjDzRkHTDdAUc8E3JPJxkyVYK","zsBfeBSdE7vxtgIbfVOykEXPpx",1787932,578,FALSE,23649,"['binary_statepop2', 'binary_statearea2', 'binary_gdp2']","['33', '35', '20']"
"0bjDzRkHTDdAUc8E3JPJxkyVYK","zsBfeBSdE7vxtgIbfVOykEXPpx",1806192,579,FALSE,18255,"['time1', 'time2', 'time3']","['9', '14', '16']"
"0bjDzRkHTDdAUc8E3JPJxkyVYK","zsBfeBSdE7vxtgIbfVOykEXPpx",1818601,580,FALSE,12405,"['time4', 'time5', 'time6']","['69', '81', '89']"
"0bjDzRkHTDdAUc8E3JPJxkyVYK","zsBfeBSdE7vxtgIbfVOykEXPpx",1839513,581,FALSE,20907,"['space1', 'space2', 'space3']","['74', '100', '100']"
"0bjDzRkHTDdAUc8E3JPJxkyVYK","zsBfeBSdE7vxtgIbfVOykEXPpx",1861201,582,FALSE,21684,"['space4', 'space5', 'space6']","['60', '91', '100']"
"0bjDzRkHTDdAUc8E3JPJxkyVYK","zsBfeBSdE7vxtgIbfVOykEXPpx",1893386,583,FALSE,32180,"['confidence_interval1', 'confidence_interval2', 'confidence_interval3']","['74', '85', '95']"
"0d3KNfQfPK5yzhZRUP0U1M47yp","RSiqpywAKT7f8wv1Igns83P72Y",91026,12,FALSE,47641,"['trinary_A', 'trinary_B', 'trinary_C', 'trinary_AB', 'trinary_BC']","['0', '0', '100', '0', '100']"
"0d3KNfQfPK5yzhZRUP0U1M47yp","RSiqpywAKT7f8wv1Igns83P72Y",130271,13,FALSE,39207,"['binary_statepop1', 'binary_statearea1', 'binary_gdp1']","['53', '100', '82']"
"0d3KNfQfPK5yzhZRUP0U1M47yp","RSiqpywAKT7f8wv1Igns83P72Y",166989,14,FALSE,36708,"['binary_statepop2', 'binary_statearea2', 'binary_gdp2']","['35', '0', '0']"
"0d3KNfQfPK5yzhZRUP0U1M47yp","RSiqpywAKT7f8wv1Igns83P72Y",185572,15,FALSE,18565,"['time1', 'time2', 'time3']","['27', '31', '37']"
"0d3KNfQfPK5yzhZRUP0U1M47yp","RSiqpywAKT7f8wv1Igns83P72Y",211678,16,FALSE,26099,"['time4', 'time5', 'time6']","['90', '100', '100']"
"0d3KNfQfPK5yzhZRUP0U1M47yp","RSiqpywAKT7f8wv1Igns83P72Y",234394,17,FALSE,22709,"['space1', 'space2', 'space3']","['91', '100', '100']"
"0d3KNfQfPK5yzhZRUP0U1M47yp","RSiqpywAKT7f8wv1Igns83P72Y",255671,18,FALSE,21269,"['space4', 'space5', 'space6']","['58', '92', '100']"
"0d3KNfQfPK5yzhZRUP0U1M47yp","RSiqpywAKT7f8wv1Igns83P72Y",304514,19,FALSE,48834,"['confidence_interval1', 'confidence_interval2', 'confidence_interval3']","['88', '90', '92']"
"0DbPC3sk9u2UC1A1OXELSFZqk4","c2GIWn9emVoP44rKyARiF4oCTC",1482892,147,FALSE,60754,"['trinary_A', 'trinary_B', 'trinary_C', 'trinary_AB', 'trinary_BC']","['4', '4', '90', '9', '95']"
"0DbPC3sk9u2UC1A1OXELSFZqk4","c2GIWn9emVoP44rKyARiF4oCTC",1531964,148,FALSE,49036,"['binary_statepop1', 'binary_statearea1', 'binary_gdp1']","['45', '65', '90']"
"0DbPC3sk9u2UC1A1OXELSFZqk4","c2GIWn9emVoP44rKyARiF4oCTC",1548552,149,FALSE,16571,"['binary_statepop2', 'binary_statearea2', 'binary_gdp2']","['55', '35', '10']"
"0DbPC3sk9u2UC1A1OXELSFZqk4","c2GIWn9emVoP44rKyARiF4oCTC",1593016,150,FALSE,44456,"['time1', 'time2', 'time3']","['3', '12', '25']"
"0DbPC3sk9u2UC1A1OXELSFZqk4","c2GIWn9emVoP44rKyARiF4oCTC",1625391,151,FALSE,32371,"['time4', 'time5', 'time6']","['3', '7', '15']"
"0DbPC3sk9u2UC1A1OXELSFZqk4","c2GIWn9emVoP44rKyARiF4oCTC",1648665,152,FALSE,23268,"['space1', 'space2', 'space3']","['98', '99', '100']"
"0DbPC3sk9u2UC1A1OXELSFZqk4","c2GIWn9emVoP44rKyARiF4oCTC",1679771,153,FALSE,31100,"['space4', 'space5', 'space6']","['3', '19', '49']"
"0DbPC3sk9u2UC1A1OXELSFZqk4","c2GIWn9emVoP44rKyARiF4oCTC",1719824,154,FALSE,40048,"['confidence_interval1', 'confidence_interval2', 'confidence_interval3']","['96', '98', '99']"
"0f9yzMMlcjFihBIVm43sUQOq5N","qhl8ukQCrx6MDit5YdxfmugO0f",232904,21,FALSE,47447,"['trinary_A', 'trinary_B', 'trinary_C', 'trinary_AB', 'trinary_BC']","['20', '39', '70', '19', '88']"
"0f9yzMMlcjFihBIVm43sUQOq5N","qhl8ukQCrx6MDit5YdxfmugO0f",260572,22,FALSE,27657,"['binary_statepop1', 'binary_statearea1', 'binary_gdp1']","['100', '50', '63']"
"0f9yzMMlcjFihBIVm43sUQOq5N","qhl8ukQCrx6MDit5YdxfmugO0f",289042,23,FALSE,28461,"['binary_statepop2', 'binary_statearea2', 'binary_gdp2']","['0', '50', '36']"
"0f9yzMMlcjFihBIVm43sUQOq5N","qhl8ukQCrx6MDit5YdxfmugO0f",308943,24,FALSE,19895,"['time1', 'time2', 'time3']","['29', '52', '63']"
"0f9yzMMlcjFihBIVm43sUQOq5N","qhl8ukQCrx6MDit5YdxfmugO0f",326262,25,FALSE,17311,"['time4', 'time5', 'time6']","['30', '40', '50']"
"0f9yzMMlcjFihBIVm43sUQOq5N","qhl8ukQCrx6MDit5YdxfmugO0f",353781,26,FALSE,27513,"['space1', 'space2', 'space3']","['90', '100', '100']"
"0f9yzMMlcjFihBIVm43sUQOq5N","qhl8ukQCrx6MDit5YdxfmugO0f",375917,27,FALSE,22128,"['space4', 'space5', 'space6']","['40', '54', '89']"
"0f9yzMMlcjFihBIVm43sUQOq5N","qhl8ukQCrx6MDit5YdxfmugO0f",396069,28,FALSE,20145,"['confidence_interval1', 'confidence_interval2', 'confidence_interval3']","['28', '47', '60']"
"0G6inFq7heMyKnrLpeL72Oc0x2","yAgyeF8QHnbs6LcNXkA9cjYtRu",1552206,153,FALSE,56847,"['trinary_A', 'trinary_B', 'trinary_C', 'trinary_AB', 'trinary_BC']","['74', '76', '45', '64', '55']"
"0G6inFq7heMyKnrLpeL72Oc0x2","yAgyeF8QHnbs6LcNXkA9cjYtRu",1579314,154,FALSE,27077,"['binary_statepop1', 'binary_statearea1', 'binary_gdp1']","['67', '42', '83']"
"0G6inFq7heMyKnrLpeL72Oc0x2","yAgyeF8QHnbs6LcNXkA9cjYtRu",1606392,155,FALSE,27063,"['binary_statepop2', 'binary_statearea2', 'binary_gdp2']","['32', '64', '24']"
"0G6inFq7heMyKnrLpeL72Oc0x2","yAgyeF8QHnbs6LcNXkA9cjYtRu",1629555,156,FALSE,23144,"['time1', 'time2', 'time3']","['63', '72', '83']"
"0G6inFq7heMyKnrLpeL72Oc0x2","yAgyeF8QHnbs6LcNXkA9cjYtRu",1647557,157,FALSE,17997,"['time4', 'time5', 'time6']","['24', '33', '44']"
"0G6inFq7heMyKnrLpeL72Oc0x2","yAgyeF8QHnbs6LcNXkA9cjYtRu",1678729,158,FALSE,31165,"['space1', 'space2', 'space3']","['45', '72', '87']"
"0G6inFq7heMyKnrLpeL72Oc0x2","yAgyeF8QHnbs6LcNXkA9cjYtRu",1700300,159,FALSE,21562,"['space4', 'space5', 'space6']","['71', '83', '86']"
"0G6inFq7heMyKnrLpeL72Oc0x2","yAgyeF8QHnbs6LcNXkA9cjYtRu",1733479,160,FALSE,33172,"['confidence_interval1', 'confidence_interval2', 'confidence_interval3']","['67', '78', '90']"
"0iWhbvxyvGhSXx6Vwq7cOzsX5P","X1rytSlURdcGMLSBZf6jwNoXUe",22503169,653,TRUE,101969,"['trinary_A', 'trinary_B', 'trinary_C', 'trinary_AB', 'trinary_BC']","['50', '20', '50', '49', '69']"
"0iWhbvxyvGhSXx6Vwq7cOzsX5P","X1rytSlURdcGMLSBZf6jwNoXUe",22561281,654,FALSE,58105,"['binary_statepop1', 'binary_statearea1', 'binary_gdp1']","['94', '41', '79']"
"0iWhbvxyvGhSXx6Vwq7cOzsX5P","X1rytSlURdcGMLSBZf6jwNoXUe",22575134,655,FALSE,13850,"['binary_statepop2', 'binary_statearea2', 'binary_gdp2']","['3', '59', '10']"
"0iWhbvxyvGhSXx6Vwq7cOzsX5P","X1rytSlURdcGMLSBZf6jwNoXUe",22630678,656,FALSE,55538,"['time1', 'time2', 'time3']","['1', '4', '8']"
"0iWhbvxyvGhSXx6Vwq7cOzsX5P","X1rytSlURdcGMLSBZf6jwNoXUe",22648705,657,FALSE,18023,"['time4', 'time5', 'time6']","['15', '26', '35']"
"0iWhbvxyvGhSXx6Vwq7cOzsX5P","X1rytSlURdcGMLSBZf6jwNoXUe",22691979,658,FALSE,43270,"['space1', 'space2', 'space3']","['70', '88', '99']"
"0iWhbvxyvGhSXx6Vwq7cOzsX5P","X1rytSlURdcGMLSBZf6jwNoXUe",22720848,659,FALSE,28866,"['space4', 'space5', 'space6']","['1', '14', '72']"
"0iWhbvxyvGhSXx6Vwq7cOzsX5P","X1rytSlURdcGMLSBZf6jwNoXUe",22782223,660,TRUE,61370,"['confidence_interval1', 'confidence_interval2', 'confidence_interval3']","['44', '57', '79']"
"0jtfnPUyl2KfOkrH6EawIfcZrU","stUKpNW3Mk2vv5Oc72ghXZyNnT",71069,12,FALSE,50603,"['trinary_A', 'trinary_B', 'trinary_C', 'trinary_AB', 'trinary_BC']","['10', '21', '69', '32', '49']"
"0jtfnPUyl2KfOkrH6EawIfcZrU","stUKpNW3Mk2vv5Oc72ghXZyNnT",92137,13,FALSE,21065,"['binary_statepop1', 'binary_statearea1', 'binary_gdp1']","['59', '60', '79']"
"0jtfnPUyl2KfOkrH6EawIfcZrU","stUKpNW3Mk2vv5Oc72ghXZyNnT",110327,14,FALSE,18187,"['binary_statepop2', 'binary_statearea2', 'binary_gdp2']","['4', '15', '30']"
"0jtfnPUyl2KfOkrH6EawIfcZrU","stUKpNW3Mk2vv5Oc72ghXZyNnT",123384,15,FALSE,13054,"['time1', 'time2', 'time3']","['59', '80', '70']"
"0jtfnPUyl2KfOkrH6EawIfcZrU","stUKpNW3Mk2vv5Oc72ghXZyNnT",138526,16,FALSE,15139,"['time4', 'time5', 'time6']","['70', '89', '79']"
"0jtfnPUyl2KfOkrH6EawIfcZrU","stUKpNW3Mk2vv5Oc72ghXZyNnT",155021,17,FALSE,16493,"['space1', 'space2', 'space3']","['91', '100', '100']"
"0jtfnPUyl2KfOkrH6EawIfcZrU","stUKpNW3Mk2vv5Oc72ghXZyNnT",168729,18,FALSE,13706,"['space4', 'space5', 'space6']","['59', '79', '80']"
"0jtfnPUyl2KfOkrH6EawIfcZrU","stUKpNW3Mk2vv5Oc72ghXZyNnT",183581,19,FALSE,14851,"['confidence_interval1', 'confidence_interval2', 'confidence_interval3']","['70', '49', '60']"
"0lONQy80IYyb7sgqnX55uzWGpk","OM503ekApHW2kf5At0wdsuS96N",1669240,198,FALSE,30721,"['trinary_A', 'trinary_B', 'trinary_C', 'trinary_AB', 'trinary_BC']","['40', '50', '90', '11', '94']"
"0lONQy80IYyb7sgqnX55uzWGpk","OM503ekApHW2kf5At0wdsuS96N",1687798,199,FALSE,18554,"['binary_statepop1', 'binary_statearea1', 'binary_gdp1']","['70', '19', '74']"
"0lONQy80IYyb7sgqnX55uzWGpk","OM503ekApHW2kf5At0wdsuS96N",1702549,200,FALSE,14748,"['binary_statepop2', 'binary_statearea2', 'binary_gdp2']","['10', '39', '20']"
"0lONQy80IYyb7sgqnX55uzWGpk","OM503ekApHW2kf5At0wdsuS96N",1717942,201,FALSE,15390,"['time1', 'time2', 'time3']","['15', '21', '35']"
"0lONQy80IYyb7sgqnX55uzWGpk","OM503ekApHW2kf5At0wdsuS96N",1729734,202,FALSE,11790,"['time4', 'time5', 'time6']","['10', '12', '15']"
"0lONQy80IYyb7sgqnX55uzWGpk","OM503ekApHW2kf5At0wdsuS96N",1745086,203,FALSE,15350,"['space1', 'space2', 'space3']","['54', '71', '95']"
"0lONQy80IYyb7sgqnX55uzWGpk","OM503ekApHW2kf5At0wdsuS96N",1760740,204,FALSE,15651,"['space4', 'space5', 'space6']","['13', '31', '70']"
"0lONQy80IYyb7sgqnX55uzWGpk","OM503ekApHW2kf5At0wdsuS96N",1778455,205,FALSE,17712,"['confidence_interval1', 'confidence_interval2', 'confidence_interval3']","['30', '43', '70']"
"0MRkDC9OIj6neflPX1YCGTovn9","vAE6zLm4ydsdwHl2dEf8dPgmJl",106876021,1236,FALSE,56047,"['trinary_A', 'trinary_B', 'trinary_C', 'trinary_AB', 'trinary_BC']","['11', '19', '89', '0', '100']"
"0MRkDC9OIj6neflPX1YCGTovn9","vAE6zLm4ydsdwHl2dEf8dPgmJl",106916450,1237,FALSE,40422,"['binary_statepop1', 'binary_statearea1', 'binary_gdp1']","['80', '49', '81']"
"0MRkDC9OIj6neflPX1YCGTovn9","vAE6zLm4ydsdwHl2dEf8dPgmJl",106944724,1238,FALSE,28266,"['binary_statepop2', 'binary_statearea2', 'binary_gdp2']","['1', '49', '2']"
"0MRkDC9OIj6neflPX1YCGTovn9","vAE6zLm4ydsdwHl2dEf8dPgmJl",106966097,1239,FALSE,21367,"['time1', 'time2', 'time3']","['50', '74', '94']"
"0MRkDC9OIj6neflPX1YCGTovn9","vAE6zLm4ydsdwHl2dEf8dPgmJl",106986932,1240,FALSE,20827,"['time4', 'time5', 'time6']","['10', '29', '49']"
"0MRkDC9OIj6neflPX1YCGTovn9","vAE6zLm4ydsdwHl2dEf8dPgmJl",107018457,1241,FALSE,31517,"['space1', 'space2', 'space3']","['70', '71', '100']"
"0MRkDC9OIj6neflPX1YCGTovn9","vAE6zLm4ydsdwHl2dEf8dPgmJl",107050685,1242,FALSE,32223,"['space4', 'space5', 'space6']","['50', '90', '100']"
"0MRkDC9OIj6neflPX1YCGTovn9","vAE6zLm4ydsdwHl2dEf8dPgmJl",107088994,1243,FALSE,38301,"['confidence_interval1', 'confidence_interval2', 'confidence_interval3']","['10', '20', '49']"
"0muiSaKLm83R3IxO8bShtR5IvR","hjDpOypaLa3CKrAaFVihmBzufm",777968,95,FALSE,52068,"['trinary_A', 'trinary_B', 'trinary_C', 'trinary_AB', 'trinary_BC']","['0', '0', '100', '0', '100']"
"0muiSaKLm83R3IxO8bShtR5IvR","hjDpOypaLa3CKrAaFVihmBzufm",914818,96,FALSE,136847,"['binary_statepop1', 'binary_statearea1', 'binary_gdp1']","['71', '60', '90']"
"0muiSaKLm83R3IxO8bShtR5IvR","hjDpOypaLa3CKrAaFVihmBzufm",957038,97,FALSE,42206,"['binary_statepop2', 'binary_statearea2', 'binary_gdp2']","['19', '30', '40']"
"0muiSaKLm83R3IxO8bShtR5IvR","hjDpOypaLa3CKrAaFVihmBzufm",1004718,98,FALSE,47676,"['time1', 'time2', 'time3']","['30', '20', '30']"
"0muiSaKLm83R3IxO8bShtR5IvR","hjDpOypaLa3CKrAaFVihmBzufm",1037929,99,FALSE,33203,"['time4', 'time5', 'time6']","['80', '70', '79']"
"0muiSaKLm83R3IxO8bShtR5IvR","hjDpOypaLa3CKrAaFVihmBzufm",1083820,100,FALSE,45881,"['space1', 'space2', 'space3']","['10', '10', '10']"
"0muiSaKLm83R3IxO8bShtR5IvR","hjDpOypaLa3CKrAaFVihmBzufm",1123695,101,FALSE,39868,"['space4', 'space5', 'space6']","['4', '70', '90']"
"0muiSaKLm83R3IxO8bShtR5IvR","hjDpOypaLa3CKrAaFVihmBzufm",1184711,102,TRUE,61009,"['confidence_interval1', 'confidence_interval2', 'confidence_interval3']","['70', '60', '0']"
"0nvFj8VxK1Hq2p7OWf9G7eoPjS","q7kGXvwxXjffBfPSfqAO1WnxIh",3724434,1102,FALSE,91789,"['trinary_A', 'trinary_B', 'trinary_C', 'trinary_AB', 'trinary_BC']","['9', '29', '69', '29', '80']"
"0nvFj8VxK1Hq2p7OWf9G7eoPjS","q7kGXvwxXjffBfPSfqAO1WnxIh",3785446,1103,TRUE,61003,"['binary_statepop1', 'binary_statearea1', 'binary_gdp1']","['75', '100', '20']"
"0nvFj8VxK1Hq2p7OWf9G7eoPjS","q7kGXvwxXjffBfPSfqAO1WnxIh",3820000,1104,FALSE,34549,"['binary_statepop2', 'binary_statearea2', 'binary_gdp2']","['10', '0', '79']"
"0nvFj8VxK1Hq2p7OWf9G7eoPjS","q7kGXvwxXjffBfPSfqAO1WnxIh",3881004,1105,TRUE,61001,"['time1', 'time2', 'time3']","['30', '49', '59']"
"0nvFj8VxK1Hq2p7OWf9G7eoPjS","q7kGXvwxXjffBfPSfqAO1WnxIh",3911783,1106,FALSE,30774,"['time4', 'time5', 'time6']","['39', '55', '75']"
"0nvFj8VxK1Hq2p7OWf9G7eoPjS","q7kGXvwxXjffBfPSfqAO1WnxIh",3969651,1107,FALSE,57864,"['space1', 'space2', 'space3']","['67', '80', '100']"
"0nvFj8VxK1Hq2p7OWf9G7eoPjS","q7kGXvwxXjffBfPSfqAO1WnxIh",4025353,1108,FALSE,55698,"['space4', 'space5', 'space6']","['45', '65', '80']"
"0nvFj8VxK1Hq2p7OWf9G7eoPjS","q7kGXvwxXjffBfPSfqAO1WnxIh",4086360,1109,TRUE,61003,"['confidence_interval1', 'confidence_interval2', 'confidence_interval3']","['100', '79', '89']"
"0o9HmsRAeWW6hOa4qWA3aiYgGk","D7gyRawJwSofJEPuvjB5TvoiYI",1337931,662,FALSE,58519,"['trinary_A', 'trinary_B', 'trinary_C', 'trinary_AB', 'trinary_BC']","['2', '6', '67', '34', '87']"
"0o9HmsRAeWW6hOa4qWA3aiYgGk","D7gyRawJwSofJEPuvjB5TvoiYI",1362280,663,FALSE,24345,"['binary_statepop1', 'binary_statearea1', 'binary_gdp1']","['71', '63', '54']"
"0o9HmsRAeWW6hOa4qWA3aiYgGk","D7gyRawJwSofJEPuvjB5TvoiYI",1388507,664,FALSE,26225,"['binary_statepop2', 'binary_statearea2', 'binary_gdp2']","['66', '38', '32']"
"0o9HmsRAeWW6hOa4qWA3aiYgGk","D7gyRawJwSofJEPuvjB5TvoiYI",1417167,665,FALSE,28657,"['time1', 'time2', 'time3']","['8', '12', '18']"
"0o9HmsRAeWW6hOa4qWA3aiYgGk","D7gyRawJwSofJEPuvjB5TvoiYI",1433784,666,FALSE,16615,"['time4', 'time5', 'time6']","['50', '66', '81']"
"0o9HmsRAeWW6hOa4qWA3aiYgGk","D7gyRawJwSofJEPuvjB5TvoiYI",1452790,667,FALSE,19004,"['space1', 'space2', 'space3']","['59', '76', '100']"
"0o9HmsRAeWW6hOa4qWA3aiYgGk","D7gyRawJwSofJEPuvjB5TvoiYI",1472648,668,FALSE,19856,"['space4', 'space5', 'space6']","['34', '49', '75']"
"0o9HmsRAeWW6hOa4qWA3aiYgGk","D7gyRawJwSofJEPuvjB5TvoiYI",1496105,669,FALSE,23455,"['confidence_interval1', 'confidence_interval2', 'confidence_interval3']","['35', '55', '67']"
"0oOc4trw2RuVUTJzHPoOiPutvD","haWvNox37toJMmbkUs8RvGxTDT",4123380,1199,FALSE,47680,"['trinary_A', 'trinary_B', 'trinary_C', 'trinary_AB', 'trinary_BC']","['0', '100', '100', '2', '100']"
"0oOc4trw2RuVUTJzHPoOiPutvD","haWvNox37toJMmbkUs8RvGxTDT",4159691,1200,FALSE,36307,"['binary_statepop1', 'binary_statearea1', 'binary_gdp1']","['100', '99', '99']"
"0oOc4trw2RuVUTJzHPoOiPutvD","haWvNox37toJMmbkUs8RvGxTDT",4178951,1201,FALSE,19254,"['binary_statepop2', 'binary_statearea2', 'binary_gdp2']","['88', '16', '71']"
"0oOc4trw2RuVUTJzHPoOiPutvD","haWvNox37toJMmbkUs8RvGxTDT",4199360,1202,FALSE,20403,"['time1', 'time2', 'time3']","['95', '84', '92']"
"0oOc4trw2RuVUTJzHPoOiPutvD","haWvNox37toJMmbkUs8RvGxTDT",4214226,1203,FALSE,14864,"['time4', 'time5', 'time6']","['73', '84', '93']"
"0oOc4trw2RuVUTJzHPoOiPutvD","haWvNox37toJMmbkUs8RvGxTDT",4223550,1204,FALSE,9321,"['space1', 'space2', 'space3']","['83', '90', '98']"
"0oOc4trw2RuVUTJzHPoOiPutvD","haWvNox37toJMmbkUs8RvGxTDT",4233784,1205,FALSE,10228,"['space4', 'space5', 'space6']","['77', '83', '94']"
"0oOc4trw2RuVUTJzHPoOiPutvD","haWvNox37toJMmbkUs8RvGxTDT",4252729,1206,FALSE,18941,"['confidence_interval1', 'confidence_interval2', 'confidence_interval3']","['41', '35', '19']"
"0PGSj6vBGEWDIv52s0FmG8v3dC","mrqZgpS24kXVNkIjRl0NcP5Xwd",2474251,768,FALSE,31206,"['trinary_A', 'trinary_B', 'trinary_C', 'trinary_AB', 'trinary_BC']","['30', '24', '66', '11', '67']"
"0PGSj6vBGEWDIv52s0FmG8v3dC","mrqZgpS24kXVNkIjRl0NcP5Xwd",2498664,769,FALSE,24399,"['binary_statepop1', 'binary_statearea1', 'binary_gdp1']","['65', '85', '59']"
"0PGSj6vBGEWDIv52s0FmG8v3dC","mrqZgpS24kXVNkIjRl0NcP5Xwd",2515933,770,FALSE,17258,"['binary_statepop2', 'binary_statearea2', 'binary_gdp2']","['31', '30', '60']"
"0PGSj6vBGEWDIv52s0FmG8v3dC","mrqZgpS24kXVNkIjRl0NcP5Xwd",2530919,771,FALSE,14977,"['time1', 'time2', 'time3']","['75', '90', '100']"
"0PGSj6vBGEWDIv52s0FmG8v3dC","mrqZgpS24kXVNkIjRl0NcP5Xwd",2541753,772,FALSE,10827,"['time4', 'time5', 'time6']","['59', '73', '89']"
"0PGSj6vBGEWDIv52s0FmG8v3dC","mrqZgpS24kXVNkIjRl0NcP5Xwd",2566249,773,FALSE,24488,"['space1', 'space2', 'space3']","['90', '95', '100']"
"0PGSj6vBGEWDIv52s0FmG8v3dC","mrqZgpS24kXVNkIjRl0NcP5Xwd",2598952,774,FALSE,32696,"['space4', 'space5', 'space6']","['75', '86', '98']"
"0PGSj6vBGEWDIv52s0FmG8v3dC","mrqZgpS24kXVNkIjRl0NcP5Xwd",2624461,775,FALSE,25501,"['confidence_interval1', 'confidence_interval2', 'confidence_interval3']","['77', '89', '96']"
"0qhwNPBkRLnN5VgpoCWSHQbZNZ","sBEJxVGV01L9RGc229FDgMXRkN",1914790,251,FALSE,43356,"['trinary_A', 'trinary_B', 'trinary_C', 'trinary_AB', 'trinary_BC']","['9', '25', '86', '10', '64']"
"0qhwNPBkRLnN5VgpoCWSHQbZNZ","sBEJxVGV01L9RGc229FDgMXRkN",1935903,252,FALSE,21111,"['binary_statepop1', 'binary_statearea1', 'binary_gdp1']","['20', '49', '64']"
"0qhwNPBkRLnN5VgpoCWSHQbZNZ","sBEJxVGV01L9RGc229FDgMXRkN",1955821,253,FALSE,19917,"['binary_statepop2', 'binary_statearea2', 'binary_gdp2']","['46', '51', '67']"
"0qhwNPBkRLnN5VgpoCWSHQbZNZ","sBEJxVGV01L9RGc229FDgMXRkN",1976199,254,FALSE,20377,"['time1', 'time2', 'time3']","['15', '17', '21']"
"0qhwNPBkRLnN5VgpoCWSHQbZNZ","sBEJxVGV01L9RGc229FDgMXRkN",1985770,255,FALSE,9569,"['time4', 'time5', 'time6']","['10', '14', '19']"
"0qhwNPBkRLnN5VgpoCWSHQbZNZ","sBEJxVGV01L9RGc229FDgMXRkN",2001705,256,FALSE,15934,"['space1', 'space2', 'space3']","['65', '75', '82']"
"0qhwNPBkRLnN5VgpoCWSHQbZNZ","sBEJxVGV01L9RGc229FDgMXRkN",2019264,257,FALSE,17558,"['space4', 'space5', 'space6']","['8', '14', '22']"
"0qhwNPBkRLnN5VgpoCWSHQbZNZ","sBEJxVGV01L9RGc229FDgMXRkN",2039521,258,FALSE,20255,"['confidence_interval1', 'confidence_interval2', 'confidence_interval3']","['43', '48', '57']"
"0wxHPgNbpBWYb8kVt0LHMMWnKG","NoWCAOszI0E1XGFTQoOlG11fOs",404953,83,FALSE,41142,"['trinary_A', 'trinary_B', 'trinary_C', 'trinary_AB', 'trinary_BC']","['3', '5', '100', '0', '100']"
"0wxHPgNbpBWYb8kVt0LHMMWnKG","NoWCAOszI0E1XGFTQoOlG11fOs",434475,84,FALSE,29504,"['binary_statepop1', 'binary_statearea1', 'binary_gdp1']","['98', '5', '39']"
"0wxHPgNbpBWYb8kVt0LHMMWnKG","NoWCAOszI0E1XGFTQoOlG11fOs",458437,85,FALSE,23952,"['binary_statepop2', 'binary_statearea2', 'binary_gdp2']","['24', '96', '62']"
"0wxHPgNbpBWYb8kVt0LHMMWnKG","NoWCAOszI0E1XGFTQoOlG11fOs",489251,86,FALSE,30791,"['time1', 'time2', 'time3']","['2', '6', '9']"
"0wxHPgNbpBWYb8kVt0LHMMWnKG","NoWCAOszI0E1XGFTQoOlG11fOs",506181,87,FALSE,16915,"['time4', 'time5', 'time6']","['29', '40', '55']"
"0wxHPgNbpBWYb8kVt0LHMMWnKG","NoWCAOszI0E1XGFTQoOlG11fOs",528736,88,FALSE,22540,"['space1', 'space2', 'space3']","['89', '100', '100']"
"0wxHPgNbpBWYb8kVt0LHMMWnKG","NoWCAOszI0E1XGFTQoOlG11fOs",550945,89,FALSE,22189,"['space4', 'space5', 'space6']","['39', '51', '100']"
"0wxHPgNbpBWYb8kVt0LHMMWnKG","NoWCAOszI0E1XGFTQoOlG11fOs",576225,90,FALSE,25262,"['confidence_interval1', 'confidence_interval2', 'confidence_interval3']","['50', '70', '61']"
"0ZtepTI67Bd7sjifgxAlqs79Ne","5Fa64v0SjRagjK6tdM8cjSncoQ",5734215,421,FALSE,47729,"['trinary_A', 'trinary_B', 'trinary_C', 'trinary_AB', 'trinary_BC']","['0', '3', '100', '0', '100']"
"0ZtepTI67Bd7sjifgxAlqs79Ne","5Fa64v0SjRagjK6tdM8cjSncoQ",5759065,422,FALSE,24847,"['binary_statepop1', 'binary_statearea1', 'binary_gdp1']","['68', '78', '35']"
"0ZtepTI67Bd7sjifgxAlqs79Ne","5Fa64v0SjRagjK6tdM8cjSncoQ",5782081,423,FALSE,23014,"['binary_statepop2', 'binary_statearea2', 'binary_gdp2']","['53', '31', '70']"
"0ZtepTI67Bd7sjifgxAlqs79Ne","5Fa64v0SjRagjK6tdM8cjSncoQ",5806615,424,FALSE,24532,"['time1', 'time2', 'time3']","['10', '11', '18']"
"0ZtepTI67Bd7sjifgxAlqs79Ne","5Fa64v0SjRagjK6tdM8cjSncoQ",5817048,425,FALSE,10430,"['time4', 'time5', 'time6']","['56', '63', '80']"
"0ZtepTI67Bd7sjifgxAlqs79Ne","5Fa64v0SjRagjK6tdM8cjSncoQ",5835348,426,FALSE,18297,"['space1', 'space2', 'space3']","['84', '90', '98']"
"0ZtepTI67Bd7sjifgxAlqs79Ne","5Fa64v0SjRagjK6tdM8cjSncoQ",5855280,427,FALSE,19930,"['space4', 'space5', 'space6']","['57', '63', '72']"
"0ZtepTI67Bd7sjifgxAlqs79Ne","5Fa64v0SjRagjK6tdM8cjSncoQ",5882816,428,FALSE,27534,"['confidence_interval1', 'confidence_interval2', 'confidence_interval3']","['86', '92', '100']"
"1aCQXzMxvKGN7rhH120pTns7ly","IH4QJEi1ebOx3cB20smzDNeipQ",846040,385,FALSE,25231,"['trinary_A', 'trinary_B', 'trinary_C', 'trinary_AB', 'trinary_BC']","['0', '15', '92', '30', '100']"
"1aCQXzMxvKGN7rhH120pTns7ly","IH4QJEi1ebOx3cB20smzDNeipQ",872024,386,FALSE,25959,"['binary_statepop1', 'binary_statearea1', 'binary_gdp1']","['91', '49', '77']"
"1aCQXzMxvKGN7rhH120pTns7ly","IH4QJEi1ebOx3cB20smzDNeipQ",885917,387,FALSE,13874,"['binary_statepop2', 'binary_statearea2', 'binary_gdp2']","['11', '50', '10']"
"1aCQXzMxvKGN7rhH120pTns7ly","IH4QJEi1ebOx3cB20smzDNeipQ",909841,388,FALSE,23907,"['time1', 'time2', 'time3']","['11', '10', '6']"
"1aCQXzMxvKGN7rhH120pTns7ly","IH4QJEi1ebOx3cB20smzDNeipQ",921391,389,FALSE,11542,"['time4', 'time5', 'time6']","['64', '71', '78']"
"1aCQXzMxvKGN7rhH120pTns7ly","IH4QJEi1ebOx3cB20smzDNeipQ",931412,390,FALSE,10007,"['space1', 'space2', 'space3']","['81', '88', '91']"
"1aCQXzMxvKGN7rhH120pTns7ly","IH4QJEi1ebOx3cB20smzDNeipQ",948368,391,FALSE,16946,"['space4', 'space5', 'space6']","['50', '45', '40']"
"1aCQXzMxvKGN7rhH120pTns7ly","IH4QJEi1ebOx3cB20smzDNeipQ",980665,392,FALSE,32283,"['confidence_interval1', 'confidence_interval2', 'confidence_interval3']","['50', '55', '61']"
"1ALaeVQQ86lCBbzEY0ygIqiVPO","YHaDajV0mJSAVxCpsiQXcuPOdA",2254924,618,FALSE,54934,"['trinary_A', 'trinary_B', 'trinary_C', 'trinary_AB', 'trinary_BC']","['4', '9', '89', '10', '96']"
"1ALaeVQQ86lCBbzEY0ygIqiVPO","YHaDajV0mJSAVxCpsiQXcuPOdA",2278436,619,FALSE,23510,"['binary_statepop1', 'binary_statearea1', 'binary_gdp1']","['84', '50', '20']"
"1ALaeVQQ86lCBbzEY0ygIqiVPO","YHaDajV0mJSAVxCpsiQXcuPOdA",2292800,620,FALSE,14362,"['binary_statepop2', 'binary_statearea2', 'binary_gdp2']","['19', '49', '74']"
"1ALaeVQQ86lCBbzEY0ygIqiVPO","YHaDajV0mJSAVxCpsiQXcuPOdA",2316016,621,FALSE,23214,"['time1', 'time2', 'time3']","['25', '39', '50']"
"1ALaeVQQ86lCBbzEY0ygIqiVPO","YHaDajV0mJSAVxCpsiQXcuPOdA",2341015,622,FALSE,24997,"['time4', 'time5', 'time6']","['65', '78', '87']"
"1ALaeVQQ86lCBbzEY0ygIqiVPO","YHaDajV0mJSAVxCpsiQXcuPOdA",2367572,623,FALSE,26554,"['space1', 'space2', 'space3']","['81', '94', '100']"
"1ALaeVQQ86lCBbzEY0ygIqiVPO","YHaDajV0mJSAVxCpsiQXcuPOdA",2391917,624,FALSE,24341,"['space4', 'space5', 'space6']","['15', '19', '29']"
"1ALaeVQQ86lCBbzEY0ygIqiVPO","YHaDajV0mJSAVxCpsiQXcuPOdA",2413350,625,FALSE,21430,"['confidence_interval1', 'confidence_interval2', 'confidence_interval3']","['49', '55', '59']"
"1brBjF9gjcWQS6VPzrzn9fg0Zt","XmVFOHxubpWC1URPBv8dA2wHa7",15642885,1236,FALSE,53533,"['trinary_A', 'trinary_B', 'trinary_C', 'trinary_AB', 'trinary_BC']","['30', '50', '70', '29', '90']"
"1brBjF9gjcWQS6VPzrzn9fg0Zt","XmVFOHxubpWC1URPBv8dA2wHa7",15672402,1237,FALSE,29509,"['binary_statepop1', 'binary_statearea1', 'binary_gdp1']","['5', '79', '60']"
"1brBjF9gjcWQS6VPzrzn9fg0Zt","XmVFOHxubpWC1URPBv8dA2wHa7",15689154,1238,FALSE,16747,"['binary_statepop2', 'binary_statearea2', 'binary_gdp2']","['90', '10', '19']"
"1brBjF9gjcWQS6VPzrzn9fg0Zt","XmVFOHxubpWC1URPBv8dA2wHa7",15716004,1239,FALSE,26846,"['time1', 'time2', 'time3']","['39', '49', '60']"
"1brBjF9gjcWQS6VPzrzn9fg0Zt","XmVFOHxubpWC1URPBv8dA2wHa7",15736509,1240,FALSE,20499,"['time4', 'time5', 'time6']","['10', '10', '16']"
"1brBjF9gjcWQS6VPzrzn9fg0Zt","XmVFOHxubpWC1URPBv8dA2wHa7",15763466,1241,FALSE,26951,"['space1', 'space2', 'space3']","['79', '90', '100']"
"1brBjF9gjcWQS6VPzrzn9fg0Zt","XmVFOHxubpWC1URPBv8dA2wHa7",15784194,1242,FALSE,20722,"['space4', 'space5', 'space6']","['60', '69', '100']"
"1brBjF9gjcWQS6VPzrzn9fg0Zt","XmVFOHxubpWC1URPBv8dA2wHa7",15816797,1243,FALSE,32599,"['confidence_interval1', 'confidence_interval2', 'confidence_interval3']","['83', '89', '94']"
"1ceGfBKQFjbWwypDqcxWsFk6uK","OpmC6zOsOAHd0fgFVbFdFEc7wZ",1862953,979,FALSE,39766,"['trinary_A', 'trinary_B', 'trinary_C', 'trinary_AB', 'trinary_BC']","['30', '36', '85', '20', '86']"
"1ceGfBKQFjbWwypDqcxWsFk6uK","OpmC6zOsOAHd0fgFVbFdFEc7wZ",1906017,980,FALSE,43061,"['binary_statepop1', 'binary_statearea1', 'binary_gdp1']","['100', '40', '65']"
"1ceGfBKQFjbWwypDqcxWsFk6uK","OpmC6zOsOAHd0fgFVbFdFEc7wZ",1926889,981,FALSE,20870,"['binary_statepop2', 'binary_statearea2', 'binary_gdp2']","['50', '44', '27']"
"1ceGfBKQFjbWwypDqcxWsFk6uK","OpmC6zOsOAHd0fgFVbFdFEc7wZ",1946610,982,FALSE,19719,"['time1', 'time2', 'time3']","['29', '60', '90']"
"1ceGfBKQFjbWwypDqcxWsFk6uK","OpmC6zOsOAHd0fgFVbFdFEc7wZ",1958818,983,FALSE,12207,"['time4', 'time5', 'time6']","['20', '36', '52']"
"1ceGfBKQFjbWwypDqcxWsFk6uK","OpmC6zOsOAHd0fgFVbFdFEc7wZ",1984618,984,FALSE,25799,"['space1', 'space2', 'space3']","['82', '95', '100']"
"1ceGfBKQFjbWwypDqcxWsFk6uK","OpmC6zOsOAHd0fgFVbFdFEc7wZ",1999266,985,FALSE,14646,"['space4', 'space5', 'space6']","['67', '80', '100']"
"1ceGfBKQFjbWwypDqcxWsFk6uK","OpmC6zOsOAHd0fgFVbFdFEc7wZ",2023131,986,FALSE,23863,"['confidence_interval1', 'confidence_interval2', 'confidence_interval3']","['100', '87', '74']"
"1GOJzZnrmuKpj5ARHg3lnbX8VY","qeppTpr0zSJIXUA6usxeHfGCml",3534745,1225,FALSE,37279,"['trinary_A', 'trinary_B', 'trinary_C', 'trinary_AB', 'trinary_BC']","['12', '31', '51', '32', '80']"
"1GOJzZnrmuKpj5ARHg3lnbX8VY","qeppTpr0zSJIXUA6usxeHfGCml",3554878,1226,FALSE,20120,"['binary_statepop1', 'binary_statearea1', 'binary_gdp1']","['30', '82', '49']"
"1GOJzZnrmuKpj5ARHg3lnbX8VY","qeppTpr0zSJIXUA6usxeHfGCml",3572899,1227,FALSE,18014,"['binary_statepop2', 'binary_statearea2', 'binary_gdp2']","['40', '40', '60']"
"1GOJzZnrmuKpj5ARHg3lnbX8VY","qeppTpr0zSJIXUA6usxeHfGCml",3595023,1228,FALSE,22115,"['time1', 'time2', 'time3']","['8', '1', '0']"
"1GOJzZnrmuKpj5ARHg3lnbX8VY","qeppTpr0zSJIXUA6usxeHfGCml",3608865,1229,FALSE,13833,"['time4', 'time5', 'time6']","['7', '8', '18']"
"1GOJzZnrmuKpj5ARHg3lnbX8VY","qeppTpr0zSJIXUA6usxeHfGCml",3634574,1230,FALSE,25702,"['space1', 'space2', 'space3']","['53', '65', '80']"
"1GOJzZnrmuKpj5ARHg3lnbX8VY","qeppTpr0zSJIXUA6usxeHfGCml",3650290,1231,FALSE,15710,"['space4', 'space5', 'space6']","['48', '50', '28']"
"1GOJzZnrmuKpj5ARHg3lnbX8VY","qeppTpr0zSJIXUA6usxeHfGCml",3666307,1232,FALSE,16011,"['confidence_interval1', 'confidence_interval2', 'confidence_interval3']","['65', '64', '71']"
"1HOK6QspxGl8qgK7ewjz5BK80U","hQZCd7IpiTUaQn6aYYxy6F9kfu",369995180,207,FALSE,33273,"['trinary_A', 'trinary_B', 'trinary_C', 'trinary_AB', 'trinary_BC']","['9', '24', '90', '20', '100']"
"1HOK6QspxGl8qgK7ewjz5BK80U","hQZCd7IpiTUaQn6aYYxy6F9kfu",370014382,208,FALSE,19188,"['binary_statepop1', 'binary_statearea1', 'binary_gdp1']","['86', '0', '94']"
"1HOK6QspxGl8qgK7ewjz5BK80U","hQZCd7IpiTUaQn6aYYxy6F9kfu",370027778,209,FALSE,13386,"['binary_statepop2', 'binary_statearea2', 'binary_gdp2']","['6', '100', '4']"
"1HOK6QspxGl8qgK7ewjz5BK80U","hQZCd7IpiTUaQn6aYYxy6F9kfu",370043604,210,FALSE,15819,"['time1', 'time2', 'time3']","['21', '46', '41']"
"1HOK6QspxGl8qgK7ewjz5BK80U","hQZCd7IpiTUaQn6aYYxy6F9kfu",370051704,211,FALSE,8095,"['time4', 'time5', 'time6']","['90', '93', '92']"
"1HOK6QspxGl8qgK7ewjz5BK80U","hQZCd7IpiTUaQn6aYYxy6F9kfu",370063521,212,FALSE,11756,"['space1', 'space2', 'space3']","['96', '100', '100']"
"1HOK6QspxGl8qgK7ewjz5BK80U","hQZCd7IpiTUaQn6aYYxy6F9kfu",370070422,213,FALSE,6888,"['space4', 'space5', 'space6']","['61', '94', '100']"
"1HOK6QspxGl8qgK7ewjz5BK80U","hQZCd7IpiTUaQn6aYYxy6F9kfu",370090096,214,FALSE,19668,"['confidence_interval1', 'confidence_interval2', 'confidence_interval3']","['95', '95', '97']"
"1hz9aEcPKuUVxzeWXU0DKHJOTo","CeJ2tQ47Cs6XJwTUtprKAVQ6Y3",950517,99,FALSE,63281,"['trinary_A', 'trinary_B', 'trinary_C', 'trinary_AB', 'trinary_BC']","['9', '21', '70', '29', '89']"
"1hz9aEcPKuUVxzeWXU0DKHJOTo","CeJ2tQ47Cs6XJwTUtprKAVQ6Y3",982356,100,FALSE,31834,"['binary_statepop1', 'binary_statearea1', 'binary_gdp1']","['60', '69', '39']"
"1hz9aEcPKuUVxzeWXU0DKHJOTo","CeJ2tQ47Cs6XJwTUtprKAVQ6Y3",1004567,101,FALSE,22209,"['binary_statepop2', 'binary_statearea2', 'binary_gdp2']","['40', '39', '60']"
"1hz9aEcPKuUVxzeWXU0DKHJOTo","CeJ2tQ47Cs6XJwTUtprKAVQ6Y3",1028439,102,FALSE,23870,"['time1', 'time2', 'time3']","['49', '69', '79']"
"1hz9aEcPKuUVxzeWXU0DKHJOTo","CeJ2tQ47Cs6XJwTUtprKAVQ6Y3",1054922,103,FALSE,26480,"['time4', 'time5', 'time6']","['70', '90', '100']"
"1hz9aEcPKuUVxzeWXU0DKHJOTo","CeJ2tQ47Cs6XJwTUtprKAVQ6Y3",1080822,104,FALSE,25897,"['space1', 'space2', 'space3']","['100', '100', '100']"
"1hz9aEcPKuUVxzeWXU0DKHJOTo","CeJ2tQ47Cs6XJwTUtprKAVQ6Y3",1095689,105,FALSE,14864,"['space4', 'space5', 'space6']","['90', '100', '100']"
"1hz9aEcPKuUVxzeWXU0DKHJOTo","CeJ2tQ47Cs6XJwTUtprKAVQ6Y3",1140156,106,FALSE,44464,"['confidence_interval1', 'confidence_interval2', 'confidence_interval3']","['100', '100', '100']"
"1JdcraYIvlFTeFgt9LeNqWf2GH","yGGpXKcjFpFCsbLk0Px3QgSz8h",5342006,1236,FALSE,46488,"['trinary_A', 'trinary_B', 'trinary_C', 'trinary_AB', 'trinary_BC']","['10', '30', '70', '20', '79']"
"1JdcraYIvlFTeFgt9LeNqWf2GH","yGGpXKcjFpFCsbLk0Px3QgSz8h",5403008,1237,TRUE,61000,"['binary_statepop1', 'binary_statearea1', 'binary_gdp1']","['60', '89', '60']"
"1JdcraYIvlFTeFgt9LeNqWf2GH","yGGpXKcjFpFCsbLk0Px3QgSz8h",5464010,1238,TRUE,61001,"['binary_statepop2', 'binary_statearea2', 'binary_gdp2']","['0', '0', '12']"
"1JdcraYIvlFTeFgt9LeNqWf2GH","yGGpXKcjFpFCsbLk0Px3QgSz8h",5479801,1239,FALSE,15789,"['time1', 'time2', 'time3']","['19', '30', '40']"
"1JdcraYIvlFTeFgt9LeNqWf2GH","yGGpXKcjFpFCsbLk0Px3QgSz8h",5493580,1240,FALSE,13778,"['time4', 'time5', 'time6']","['20', '34', '42']"
"1JdcraYIvlFTeFgt9LeNqWf2GH","yGGpXKcjFpFCsbLk0Px3QgSz8h",5511025,1241,FALSE,17443,"['space1', 'space2', 'space3']","['91', '88', '100']"
"1JdcraYIvlFTeFgt9LeNqWf2GH","yGGpXKcjFpFCsbLk0Px3QgSz8h",5529942,1242,FALSE,18915,"['space4', 'space5', 'space6']","['59', '69', '86']"
"1JdcraYIvlFTeFgt9LeNqWf2GH","yGGpXKcjFpFCsbLk0Px3QgSz8h",5573154,1243,FALSE,43211,"['confidence_interval1', 'confidence_interval2', 'confidence_interval3']","['90', '86', '84']"
"1Mj9fbNoVRFtG3zHNlw3cAngFs","L21hu8Qbq7CLsE5Wt5Uavaj9PL",4838651,1227,FALSE,38569,"['trinary_A', 'trinary_B', 'trinary_C', 'trinary_AB', 'trinary_BC']","['4', '5', '75', '17', '92']"
"1Mj9fbNoVRFtG3zHNlw3cAngFs","L21hu8Qbq7CLsE5Wt5Uavaj9PL",4869930,1228,FALSE,31275,"['binary_statepop1', 'binary_statearea1', 'binary_gdp1']","['70', '70', '86']"
"1Mj9fbNoVRFtG3zHNlw3cAngFs","L21hu8Qbq7CLsE5Wt5Uavaj9PL",4882029,1229,FALSE,12095,"['binary_statepop2', 'binary_statearea2', 'binary_gdp2']","['14', '14', '14']"
"1Mj9fbNoVRFtG3zHNlw3cAngFs","L21hu8Qbq7CLsE5Wt5Uavaj9PL",4901628,1230,FALSE,19595,"['time1', 'time2', 'time3']","['13', '20', '23']"
"1Mj9fbNoVRFtG3zHNlw3cAngFs","L21hu8Qbq7CLsE5Wt5Uavaj9PL",4916112,1231,FALSE,14479,"['time4', 'time5', 'time6']","['5', '9', '9']"
"1Mj9fbNoVRFtG3zHNlw3cAngFs","L21hu8Qbq7CLsE5Wt5Uavaj9PL",4937363,1232,FALSE,21247,"['space1', 'space2', 'space3']","['40', '70', '80']"
"1Mj9fbNoVRFtG3zHNlw3cAngFs","L21hu8Qbq7CLsE5Wt5Uavaj9PL",4955165,1233,FALSE,17799,"['space4', 'space5', 'space6']","['16', '18', '7']"
"1Mj9fbNoVRFtG3zHNlw3cAngFs","L21hu8Qbq7CLsE5Wt5Uavaj9PL",4970347,1234,FALSE,15180,"['confidence_interval1', 'confidence_interval2', 'confidence_interval3']","['11', '9', '7']"
"1OzveigfU1iFItrM6WmJ1HkUNY","bjfpF9N2C8BkA0aOG7zwJWPUri",500061,79,FALSE,87298,"['trinary_A', 'trinary_B', 'trinary_C', 'trinary_AB', 'trinary_BC']","['10', '50', '70', '50', '89']"
"1OzveigfU1iFItrM6WmJ1HkUNY","bjfpF9N2C8BkA0aOG7zwJWPUri",523398,80,FALSE,23320,"['binary_statepop1', 'binary_statearea1', 'binary_gdp1']","['79', '59', '89']"
"1OzveigfU1iFItrM6WmJ1HkUNY","bjfpF9N2C8BkA0aOG7zwJWPUri",540618,81,FALSE,17216,"['binary_statepop2', 'binary_statearea2', 'binary_gdp2']","['20', '20', '10']"
"1OzveigfU1iFItrM6WmJ1HkUNY","bjfpF9N2C8BkA0aOG7zwJWPUri",574328,82,FALSE,33707,"['time1', 'time2', 'time3']","['50', '56', '60']"
"1OzveigfU1iFItrM6WmJ1HkUNY","bjfpF9N2C8BkA0aOG7zwJWPUri",587895,83,FALSE,13563,"['time4', 'time5', 'time6']","['80', '89', '100']"
"1OzveigfU1iFItrM6WmJ1HkUNY","bjfpF9N2C8BkA0aOG7zwJWPUri",608521,84,FALSE,20623,"['space1', 'space2', 'space3']","['89', '100', '100']"
"1OzveigfU1iFItrM6WmJ1HkUNY","bjfpF9N2C8BkA0aOG7zwJWPUri",623512,85,FALSE,14986,"['space4', 'space5', 'space6']","['60', '70', '100']"
"1OzveigfU1iFItrM6WmJ1HkUNY","bjfpF9N2C8BkA0aOG7zwJWPUri",657092,86,FALSE,33576,"['confidence_interval1', 'confidence_interval2', 'confidence_interval3']","['100', '100', '100']"
"1TuvpkmKs8aFElCAUlBddz9xEb","Pwrhvq8219MgDvxspz8PeXkCEs",2458378,593,FALSE,58881,"['trinary_A', 'trinary_B', 'trinary_C', 'trinary_AB', 'trinary_BC']","['0', '0', '100', '0', '100']"
"1TuvpkmKs8aFElCAUlBddz9xEb","Pwrhvq8219MgDvxspz8PeXkCEs",2512698,594,FALSE,54319,"['binary_statepop1', 'binary_statearea1', 'binary_gdp1']","['49', '50', '49']"
"1TuvpkmKs8aFElCAUlBddz9xEb","Pwrhvq8219MgDvxspz8PeXkCEs",2536204,595,FALSE,23504,"['binary_statepop2', 'binary_statearea2', 'binary_gdp2']","['50', '50', '50']"
"1TuvpkmKs8aFElCAUlBddz9xEb","Pwrhvq8219MgDvxspz8PeXkCEs",2566988,596,FALSE,30783,"['time1', 'time2', 'time3']","['49', '50', '50']"
"1TuvpkmKs8aFElCAUlBddz9xEb","Pwrhvq8219MgDvxspz8PeXkCEs",2589213,597,FALSE,22224,"['time4', 'time5', 'time6']","['100', '100', '100']"
"1TuvpkmKs8aFElCAUlBddz9xEb","Pwrhvq8219MgDvxspz8PeXkCEs",2628549,598,FALSE,39335,"['space1', 'space2', 'space3']","['50', '49', '50']"
"1TuvpkmKs8aFElCAUlBddz9xEb","Pwrhvq8219MgDvxspz8PeXkCEs",2655998,599,FALSE,27448,"['space4', 'space5', 'space6']","['50', '51', '50']"
"1TuvpkmKs8aFElCAUlBddz9xEb","Pwrhvq8219MgDvxspz8PeXkCEs",2683376,600,FALSE,27376,"['confidence_interval1', 'confidence_interval2', 'confidence_interval3']","['50', '50', '50']"
"1uZPCXhrAQUz9u3bnwbSu2f9OW","KTye7PCG4vs2l3X0cy0GXmQ4iR",3516298,1190,TRUE,101001,"['trinary_A', 'trinary_B', 'trinary_C', 'trinary_AB', 'trinary_BC']","['0', '0', '100', '0', '0']"
"1uZPCXhrAQUz9u3bnwbSu2f9OW","KTye7PCG4vs2l3X0cy0GXmQ4iR",3540883,1191,FALSE,24582,"['binary_statepop1', 'binary_statearea1', 'binary_gdp1']","['89', '89', '79']"
"1uZPCXhrAQUz9u3bnwbSu2f9OW","KTye7PCG4vs2l3X0cy0GXmQ4iR",3569339,1192,FALSE,28453,"['binary_statepop2', 'binary_statearea2', 'binary_gdp2']","['3', '2', '30']"
"1uZPCXhrAQUz9u3bnwbSu2f9OW","KTye7PCG4vs2l3X0cy0GXmQ4iR",3584473,1193,FALSE,15130,"['time1', 'time2', 'time3']","['70', '50', '80']"
"1uZPCXhrAQUz9u3bnwbSu2f9OW","KTye7PCG4vs2l3X0cy0GXmQ4iR",3600943,1194,FALSE,16468,"['time4', 'time5', 'time6']","['90', '98', '100']"
"1uZPCXhrAQUz9u3bnwbSu2f9OW","KTye7PCG4vs2l3X0cy0GXmQ4iR",3614690,1195,FALSE,13745,"['space1', 'space2', 'space3']","['100', '100', '100']"
"1uZPCXhrAQUz9u3bnwbSu2f9OW","KTye7PCG4vs2l3X0cy0GXmQ4iR",3632409,1196,FALSE,17716,"['space4', 'space5', 'space6']","['19', '9', '9']"
"1uZPCXhrAQUz9u3bnwbSu2f9OW","KTye7PCG4vs2l3X0cy0GXmQ4iR",3658093,1197,FALSE,25683,"['confidence_interval1', 'confidence_interval2', 'confidence_interval3']","['71', '90', '80']"
"1yyTDdpAKpAAydh7Rncn6Zvxhs","UQLJh5NHyDy3zSvTNMHT5yOSON",4304782,1220,FALSE,51381,"['trinary_A', 'trinary_B', 'trinary_C', 'trinary_AB', 'trinary_BC']","['0', '0', '100', '0', '0']"
"1yyTDdpAKpAAydh7Rncn6Zvxhs","UQLJh5NHyDy3zSvTNMHT5yOSON",4326254,1221,FALSE,21468,"['binary_statepop1', 'binary_statearea1', 'binary_gdp1']","['59', '100', '100']"
"1yyTDdpAKpAAydh7Rncn6Zvxhs","UQLJh5NHyDy3zSvTNMHT5yOSON",4341164,1222,FALSE,14906,"['binary_statepop2', 'binary_statearea2', 'binary_gdp2']","['9', '0', '0']"
"1yyTDdpAKpAAydh7Rncn6Zvxhs","UQLJh5NHyDy3zSvTNMHT5yOSON",4357771,1223,FALSE,16605,"['time1', 'time2', 'time3']","['63', '68', '81']"
"1yyTDdpAKpAAydh7Rncn6Zvxhs","UQLJh5NHyDy3zSvTNMHT5yOSON",4370513,1224,FALSE,12739,"['time4', 'time5', 'time6']","['12', '22', '30']"
"1yyTDdpAKpAAydh7Rncn6Zvxhs","UQLJh5NHyDy3zSvTNMHT5yOSON",4388646,1225,FALSE,18130,"['space1', 'space2', 'space3']","['71', '80', '89']"
"1yyTDdpAKpAAydh7Rncn6Zvxhs","UQLJh5NHyDy3zSvTNMHT5yOSON",4404115,1226,FALSE,15467,"['space4', 'space5', 'space6']","['22', '31', '44']"
"1yyTDdpAKpAAydh7Rncn6Zvxhs","UQLJh5NHyDy3zSvTNMHT5yOSON",4426425,1227,FALSE,22307,"['confidence_interval1', 'confidence_interval2', 'confidence_interval3']","['100', '80', '69']"
"1ZFtLAHgL9wLhdzIYquWED4PQ8","VMFsU12H16PGyZBtzOabHhUizB",4276976,1185,FALSE,47726,"['trinary_A', 'trinary_B', 'trinary_C', 'trinary_AB', 'trinary_BC']","['20', '33', '70', '0', '98']"
"1ZFtLAHgL9wLhdzIYquWED4PQ8","VMFsU12H16PGyZBtzOabHhUizB",4302566,1186,FALSE,25589,"['binary_statepop1', 'binary_statearea1', 'binary_gdp1']","['100', '59', '76']"
"1ZFtLAHgL9wLhdzIYquWED4PQ8","VMFsU12H16PGyZBtzOabHhUizB",4324724,1187,FALSE,22156,"['binary_statepop2', 'binary_statearea2', 'binary_gdp2']","['0', '45', '31']"
"1ZFtLAHgL9wLhdzIYquWED4PQ8","VMFsU12H16PGyZBtzOabHhUizB",4361990,1188,FALSE,37265,"['time1', 'time2', 'time3']","['9', '15', '19']"
"1ZFtLAHgL9wLhdzIYquWED4PQ8","VMFsU12H16PGyZBtzOabHhUizB",4378617,1189,FALSE,16626,"['time4', 'time5', 'time6']","['19', '25', '29']"
"1ZFtLAHgL9wLhdzIYquWED4PQ8","VMFsU12H16PGyZBtzOabHhUizB",4414295,1190,FALSE,35676,"['space1', 'space2', 'space3']","['59', '75', '90']"
"1ZFtLAHgL9wLhdzIYquWED4PQ8","VMFsU12H16PGyZBtzOabHhUizB",4440419,1191,FALSE,26122,"['space4', 'space5', 'space6']","['19', '25', '39']"
"1ZFtLAHgL9wLhdzIYquWED4PQ8","VMFsU12H16PGyZBtzOabHhUizB",4468246,1192,FALSE,27825,"['confidence_interval1', 'confidence_interval2', 'confidence_interval3']","['80', '89', '100']"
"25bD8vGu2cCVsPkfhZmCy6xK4t","fjuqnDvz9v2uvRva5a22Ls7njK",3840695,873,FALSE,28189,"['trinary_A', 'trinary_B', 'trinary_C', 'trinary_AB', 'trinary_BC']","['30', '39', '80', '64', '55']"
"25bD8vGu2cCVsPkfhZmCy6xK4t","fjuqnDvz9v2uvRva5a22Ls7njK",3889983,874,FALSE,49287,"['binary_statepop1', 'binary_statearea1', 'binary_gdp1']","['80', '69', '69']"
"25bD8vGu2cCVsPkfhZmCy6xK4t","fjuqnDvz9v2uvRva5a22Ls7njK",3896016,875,FALSE,6031,"['binary_statepop2', 'binary_statearea2', 'binary_gdp2']","['50', '34', '69']"
"25bD8vGu2cCVsPkfhZmCy6xK4t","fjuqnDvz9v2uvRva5a22Ls7njK",3902669,876,FALSE,6651,"['time1', 'time2', 'time3']","['59', '49', '39']"
"25bD8vGu2cCVsPkfhZmCy6xK4t","fjuqnDvz9v2uvRva5a22Ls7njK",3923200,877,FALSE,20529,"['time4', 'time5', 'time6']","['24', '35', '26']"
"25bD8vGu2cCVsPkfhZmCy6xK4t","fjuqnDvz9v2uvRva5a22Ls7njK",3929440,878,FALSE,6238,"['space1', 'space2', 'space3']","['49', '41', '60']"
"25bD8vGu2cCVsPkfhZmCy6xK4t","fjuqnDvz9v2uvRva5a22Ls7njK",3934102,879,FALSE,4661,"['space4', 'space5', 'space6']","['30', '42', '65']"
"25bD8vGu2cCVsPkfhZmCy6xK4t","fjuqnDvz9v2uvRva5a22Ls7njK",3937742,880,FALSE,3638,"['confidence_interval1', 'confidence_interval2', 'confidence_interval3']","['44', '46', '53']"
"26KL9Q0Jbtt6iGSpAKazbt3JhO","gDfPNy4qcbW4vLbBur1HI212fD",2253776,707,FALSE,42478,"['trinary_A', 'trinary_B', 'trinary_C', 'trinary_AB', 'trinary_BC']","['11', '15', '80', '29', '100']"
"26KL9Q0Jbtt6iGSpAKazbt3JhO","gDfPNy4qcbW4vLbBur1HI212fD",2283228,708,FALSE,29450,"['binary_statepop1', 'binary_statearea1', 'binary_gdp1']","['100', '61', '49']"
"26KL9Q0Jbtt6iGSpAKazbt3JhO","gDfPNy4qcbW4vLbBur1HI212fD",2310704,709,FALSE,27473,"['binary_statepop2', 'binary_statearea2', 'binary_gdp2']","['0', '35', '10']"
"26KL9Q0Jbtt6iGSpAKazbt3JhO","gDfPNy4qcbW4vLbBur1HI212fD",2329892,710,FALSE,19186,"['time1', 'time2', 'time3']","['69', '70', '69']"
"26KL9Q0Jbtt6iGSpAKazbt3JhO","gDfPNy4qcbW4vLbBur1HI212fD",2354699,711,FALSE,24804,"['time4', 'time5', 'time6']","['61', '59', '60']"
"26KL9Q0Jbtt6iGSpAKazbt3JhO","gDfPNy4qcbW4vLbBur1HI212fD",2371849,712,FALSE,17147,"['space1', 'space2', 'space3']","['100', '100', '100']"
"26KL9Q0Jbtt6iGSpAKazbt3JhO","gDfPNy4qcbW4vLbBur1HI212fD",2385420,713,FALSE,13570,"['space4', 'space5', 'space6']","['80', '80', '100']"
"26KL9Q0Jbtt6iGSpAKazbt3JhO","gDfPNy4qcbW4vLbBur1HI212fD",2400278,714,FALSE,14855,"['confidence_interval1', 'confidence_interval2', 'confidence_interval3']","['50', '63', '80']"
"27YwGn0TiDrlXCLxWsUMAcIt45","BluFb9sjGtjJeiIehkkd7NzU0B",1613744,252,FALSE,32833,"['trinary_A', 'trinary_B', 'trinary_C', 'trinary_AB', 'trinary_BC']","['10', '29', '100', '31', '6']"
"27YwGn0TiDrlXCLxWsUMAcIt45","BluFb9sjGtjJeiIehkkd7NzU0B",1626731,253,FALSE,12983,"['binary_statepop1', 'binary_statearea1', 'binary_gdp1']","['80', '50', '89']"
"27YwGn0TiDrlXCLxWsUMAcIt45","BluFb9sjGtjJeiIehkkd7NzU0B",1635046,254,FALSE,8312,"['binary_statepop2', 'binary_statearea2', 'binary_gdp2']","['31', '19', '32']"
"27YwGn0TiDrlXCLxWsUMAcIt45","BluFb9sjGtjJeiIehkkd7NzU0B",1645899,255,FALSE,10849,"['time1', 'time2', 'time3']","['30', '51', '62']"
"27YwGn0TiDrlXCLxWsUMAcIt45","BluFb9sjGtjJeiIehkkd7NzU0B",1659832,256,FALSE,13931,"['time4', 'time5', 'time6']","['3', '5', '7']"
"27YwGn0TiDrlXCLxWsUMAcIt45","BluFb9sjGtjJeiIehkkd7NzU0B",1674560,257,FALSE,14725,"['space1', 'space2', 'space3']","['79', '100', '100']"
"27YwGn0TiDrlXCLxWsUMAcIt45","BluFb9sjGtjJeiIehkkd7NzU0B",1685982,258,FALSE,11418,"['space4', 'space5', 'space6']","['90', '96', '100']"
"27YwGn0TiDrlXCLxWsUMAcIt45","BluFb9sjGtjJeiIehkkd7NzU0B",1704464,259,FALSE,18479,"['confidence_interval1', 'confidence_interval2', 'confidence_interval3']","['9', '20', '31']"
"2AA93UwCDg76IqO8nWIGe29q3f","lh4pSsgfWqYF9UuWEqnuinYfm8",833436,43,FALSE,82521,"['trinary_A', 'trinary_B', 'trinary_C', 'trinary_AB', 'trinary_BC']","['0', '0', '100', '0', '100']"
"2AA93UwCDg76IqO8nWIGe29q3f","lh4pSsgfWqYF9UuWEqnuinYfm8",858277,44,FALSE,24832,"['binary_statepop1', 'binary_statearea1', 'binary_gdp1']","['100', '100', '100']"
"2AA93UwCDg76IqO8nWIGe29q3f","lh4pSsgfWqYF9UuWEqnuinYfm8",877053,45,FALSE,18771,"['binary_statepop2', 'binary_statearea2', 'binary_gdp2']","['0', '0', '0']"
"2AA93UwCDg76IqO8nWIGe29q3f","lh4pSsgfWqYF9UuWEqnuinYfm8",915294,46,FALSE,38236,"['time1', 'time2', 'time3']","['9', '30', '50']"
"2AA93UwCDg76IqO8nWIGe29q3f","lh4pSsgfWqYF9UuWEqnuinYfm8",925655,47,FALSE,10354,"['time4', 'time5', 'time6']","['9', '29', '50']"
"2AA93UwCDg76IqO8nWIGe29q3f","lh4pSsgfWqYF9UuWEqnuinYfm8",952110,48,FALSE,26450,"['space1', 'space2', 'space3']","['60', '100', '100']"
"2AA93UwCDg76IqO8nWIGe29q3f","lh4pSsgfWqYF9UuWEqnuinYfm8",979592,49,FALSE,27474,"['space4', 'space5', 'space6']","['50', '70', '100']"
"2AA93UwCDg76IqO8nWIGe29q3f","lh4pSsgfWqYF9UuWEqnuinYfm8",1036640,50,FALSE,57042,"['confidence_interval1', 'confidence_interval2', 'confidence_interval3']","['29', '60', '100']"
"2B8aRYS8XLGxLWy0alFAxZOteH","hqPXC9PDhAOi0uTT0BgHwET8ed",1726364,269,FALSE,86227,"['trinary_A', 'trinary_B', 'trinary_C', 'trinary_AB', 'trinary_BC']","['20', '29', '70', '19', '79']"
"2B8aRYS8XLGxLWy0alFAxZOteH","hqPXC9PDhAOi0uTT0BgHwET8ed",1749838,270,FALSE,23448,"['binary_statepop1', 'binary_statearea1', 'binary_gdp1']","['90', '90', '90']"
"2B8aRYS8XLGxLWy0alFAxZOteH","hqPXC9PDhAOi0uTT0BgHwET8ed",1763168,271,FALSE,13320,"['binary_statepop2', 'binary_statearea2', 'binary_gdp2']","['9', '4', '6']"
"2B8aRYS8XLGxLWy0alFAxZOteH","hqPXC9PDhAOi0uTT0BgHwET8ed",1777406,272,FALSE,14229,"['time1', 'time2', 'time3']","['9', '16', '25']"
"2B8aRYS8XLGxLWy0alFAxZOteH","hqPXC9PDhAOi0uTT0BgHwET8ed",1796831,273,FALSE,19418,"['time4', 'time5', 'time6']","['19', '40', '59']"
"2B8aRYS8XLGxLWy0alFAxZOteH","hqPXC9PDhAOi0uTT0BgHwET8ed",1818009,274,FALSE,21173,"['space1', 'space2', 'space3']","['80', '98', '100']"
"2B8aRYS8XLGxLWy0alFAxZOteH","hqPXC9PDhAOi0uTT0BgHwET8ed",1831388,275,FALSE,13366,"['space4', 'space5', 'space6']","['25', '44', '54']"
"2B8aRYS8XLGxLWy0alFAxZOteH","hqPXC9PDhAOi0uTT0BgHwET8ed",1854355,276,FALSE,22963,"['confidence_interval1', 'confidence_interval2', 'confidence_interval3']","['95', '100', '100']"
"2c4yipde1kQFIRgdbcH0lZrkDB","gQX0CndTxISJqfxs4TJZSJs7v1",86224452,1249,FALSE,43909,"['trinary_A', 'trinary_B', 'trinary_C', 'trinary_AB', 'trinary_BC']","['19', '20', '80', '20', '90']"
"2c4yipde1kQFIRgdbcH0lZrkDB","gQX0CndTxISJqfxs4TJZSJs7v1",86246292,1250,FALSE,21833,"['binary_statepop1', 'binary_statearea1', 'binary_gdp1']","['70', '29', '50']"
"2c4yipde1kQFIRgdbcH0lZrkDB","gQX0CndTxISJqfxs4TJZSJs7v1",86275448,1251,FALSE,29153,"['binary_statepop2', 'binary_statearea2', 'binary_gdp2']","['39', '59', '50']"
"2c4yipde1kQFIRgdbcH0lZrkDB","gQX0CndTxISJqfxs4TJZSJs7v1",86296166,1252,FALSE,20713,"['time1', 'time2', 'time3']","['59', '61', '63']"
"2c4yipde1kQFIRgdbcH0lZrkDB","gQX0CndTxISJqfxs4TJZSJs7v1",86308594,1253,FALSE,12425,"['time4', 'time5', 'time6']","['50', '52', '57']"
"2c4yipde1kQFIRgdbcH0lZrkDB","gQX0CndTxISJqfxs4TJZSJs7v1",86330338,1254,FALSE,21739,"['space1', 'space2', 'space3']","['59', '100', '100']"
"2c4yipde1kQFIRgdbcH0lZrkDB","gQX0CndTxISJqfxs4TJZSJs7v1",86347481,1255,FALSE,17139,"['space4', 'space5', 'space6']","['50', '54', '94']"
"2c4yipde1kQFIRgdbcH0lZrkDB","gQX0CndTxISJqfxs4TJZSJs7v1",86369908,1256,FALSE,22424,"['confidence_interval1', 'confidence_interval2', 'confidence_interval3']","['56', '65', '76']"
"2d8DQPFYsBDFeDwNnYbm1WMThN","3spu556xygORPMao8GnXauKDKT",10224962,604,FALSE,50928,"['trinary_A', 'trinary_B', 'trinary_C', 'trinary_AB', 'trinary_BC']","['15', '39', '39', '29', '80']"
"2d8DQPFYsBDFeDwNnYbm1WMThN","3spu556xygORPMao8GnXauKDKT",10250047,605,FALSE,25082,"['binary_statepop1', 'binary_statearea1', 'binary_gdp1']","['45', '59', '49']"
"2d8DQPFYsBDFeDwNnYbm1WMThN","3spu556xygORPMao8GnXauKDKT",10262439,606,FALSE,12389,"['binary_statepop2', 'binary_statearea2', 'binary_gdp2']","['49', '31', '49']"
"2d8DQPFYsBDFeDwNnYbm1WMThN","3spu556xygORPMao8GnXauKDKT",10281128,607,FALSE,18684,"['time1', 'time2', 'time3']","['16', '16', '16']"
"2d8DQPFYsBDFeDwNnYbm1WMThN","3spu556xygORPMao8GnXauKDKT",10290655,608,FALSE,9525,"['time4', 'time5', 'time6']","['25', '25', '25']"
"2d8DQPFYsBDFeDwNnYbm1WMThN","3spu556xygORPMao8GnXauKDKT",10309975,609,FALSE,19319,"['space1', 'space2', 'space3']","['69', '70', '80']"
"2d8DQPFYsBDFeDwNnYbm1WMThN","3spu556xygORPMao8GnXauKDKT",10319127,610,FALSE,9150,"['space4', 'space5', 'space6']","['60', '60', '76']"
"2d8DQPFYsBDFeDwNnYbm1WMThN","3spu556xygORPMao8GnXauKDKT",10342088,611,FALSE,22959,"['confidence_interval1', 'confidence_interval2', 'confidence_interval3']","['49', '50', '49']"
"2EgIpyLmeCAoeePQ81fpFLNhi9","XNOO1yB3nfkJvgTjTOWa71T46E",2284438,245,FALSE,45789,"['trinary_A', 'trinary_B', 'trinary_C', 'trinary_AB', 'trinary_BC']","['10', '20', '90', '14', '90']"
"2EgIpyLmeCAoeePQ81fpFLNhi9","XNOO1yB3nfkJvgTjTOWa71T46E",2308230,246,FALSE,23790,"['binary_statepop1', 'binary_statearea1', 'binary_gdp1']","['69', '49', '60']"
"2EgIpyLmeCAoeePQ81fpFLNhi9","XNOO1yB3nfkJvgTjTOWa71T46E",2322822,247,FALSE,14591,"['binary_statepop2', 'binary_statearea2', 'binary_gdp2']","['49', '50', '50']"
"2EgIpyLmeCAoeePQ81fpFLNhi9","XNOO1yB3nfkJvgTjTOWa71T46E",2345214,248,FALSE,22391,"['time1', 'time2', 'time3']","['79', '85', '91']"
"2EgIpyLmeCAoeePQ81fpFLNhi9","XNOO1yB3nfkJvgTjTOWa71T46E",2360790,249,FALSE,15575,"['time4', 'time5', 'time6']","['25', '31', '36']"
"2EgIpyLmeCAoeePQ81fpFLNhi9","XNOO1yB3nfkJvgTjTOWa71T46E",2377430,250,FALSE,16639,"['space1', 'space2', 'space3']","['80', '90', '100']"
"2EgIpyLmeCAoeePQ81fpFLNhi9","XNOO1yB3nfkJvgTjTOWa71T46E",2393838,251,FALSE,16406,"['space4', 'space5', 'space6']","['70', '77', '87']"
"2EgIpyLmeCAoeePQ81fpFLNhi9","XNOO1yB3nfkJvgTjTOWa71T46E",2418502,252,FALSE,24663,"['confidence_interval1', 'confidence_interval2', 'confidence_interval3']","['60', '78', '87']"
"2HTOse3Z1zDR7tTs6hmh4LJDZU","t5zvbWJ7ZM8v8baeN1OQav3taM",676862,79,FALSE,56893,"['trinary_A', 'trinary_B', 'trinary_C', 'trinary_AB', 'trinary_BC']","['30', '39', '60', '40', '80']"
"2HTOse3Z1zDR7tTs6hmh4LJDZU","t5zvbWJ7ZM8v8baeN1OQav3taM",729915,80,FALSE,53039,"['binary_statepop1', 'binary_statearea1', 'binary_gdp1']","['89', '59', '50']"
"2HTOse3Z1zDR7tTs6hmh4LJDZU","t5zvbWJ7ZM8v8baeN1OQav3taM",777053,81,FALSE,47119,"['binary_statepop2', 'binary_statearea2', 'binary_gdp2']","['9', '30', '49']"
"2HTOse3Z1zDR7tTs6hmh4LJDZU","t5zvbWJ7ZM8v8baeN1OQav3taM",808592,82,FALSE,31522,"['time1', 'time2', 'time3']","['49', '50', '55']"
"2HTOse3Z1zDR7tTs6hmh4LJDZU","t5zvbWJ7ZM8v8baeN1OQav3taM",857434,83,FALSE,48829,"['time4', 'time5', 'time6']","['48', '50', '50']"
"2HTOse3Z1zDR7tTs6hmh4LJDZU","t5zvbWJ7ZM8v8baeN1OQav3taM",883159,84,FALSE,25710,"['space1', 'space2', 'space3']","['59', '60', '80']"
"2HTOse3Z1zDR7tTs6hmh4LJDZU","t5zvbWJ7ZM8v8baeN1OQav3taM",904830,85,FALSE,21660,"['space4', 'space5', 'space6']","['38', '39', '49']"
"2HTOse3Z1zDR7tTs6hmh4LJDZU","t5zvbWJ7ZM8v8baeN1OQav3taM",949077,86,FALSE,44236,"['confidence_interval1', 'confidence_interval2', 'confidence_interval3']","['100', '100', '100']"
"2i7132kcPcxEmc2hecMr2CbwsY","vyYkQYoT5SwJsD1FcweylsHLT2",6998342,1241,FALSE,94221,"['trinary_A', 'trinary_B', 'trinary_C', 'trinary_AB', 'trinary_BC']","['29', '39', '29', '70', '30']"
"2i7132kcPcxEmc2hecMr2CbwsY","vyYkQYoT5SwJsD1FcweylsHLT2",7034463,1242,FALSE,36114,"['binary_statepop1', 'binary_statearea1', 'binary_gdp1']","['55', '72', '70']"
"2i7132kcPcxEmc2hecMr2CbwsY","vyYkQYoT5SwJsD1FcweylsHLT2",7081399,1243,FALSE,46933,"['binary_statepop2', 'binary_statearea2', 'binary_gdp2']","['50', '39', '21']"
"2i7132kcPcxEmc2hecMr2CbwsY","vyYkQYoT5SwJsD1FcweylsHLT2",7129280,1244,FALSE,47877,"['time1', 'time2', 'time3']","['1', '8', '13']"
"2i7132kcPcxEmc2hecMr2CbwsY","vyYkQYoT5SwJsD1FcweylsHLT2",7161561,1245,FALSE,32277,"['time4', 'time5', 'time6']","['90', '96', '99']"
"2i7132kcPcxEmc2hecMr2CbwsY","vyYkQYoT5SwJsD1FcweylsHLT2",7205152,1246,FALSE,43587,"['space1', 'space2', 'space3']","['69', '95', '100']"
"2i7132kcPcxEmc2hecMr2CbwsY","vyYkQYoT5SwJsD1FcweylsHLT2",7240372,1247,FALSE,35217,"['space4', 'space5', 'space6']","['6', '12', '75']"
"2i7132kcPcxEmc2hecMr2CbwsY","vyYkQYoT5SwJsD1FcweylsHLT2",7283956,1248,FALSE,43580,"['confidence_interval1', 'confidence_interval2', 'confidence_interval3']","['40', '49', '59']"
"2IAPahTER2q65V8labGmLd9VyB","oADUlkMwnXlxJPguEU1lLfcpSE",573046,107,FALSE,53915,"['trinary_A', 'trinary_B', 'trinary_C', 'trinary_AB', 'trinary_BC']","['29', '39', '89', '9', '100']"
"2IAPahTER2q65V8labGmLd9VyB","oADUlkMwnXlxJPguEU1lLfcpSE",598462,108,FALSE,25408,"['binary_statepop1', 'binary_statearea1', 'binary_gdp1']","['69', '49', '49']"
"2IAPahTER2q65V8labGmLd9VyB","oADUlkMwnXlxJPguEU1lLfcpSE",613250,109,FALSE,14781,"['binary_statepop2', 'binary_statearea2', 'binary_gdp2']","['9', '49', '49']"
"2IAPahTER2q65V8labGmLd9VyB","oADUlkMwnXlxJPguEU1lLfcpSE",626424,110,FALSE,13167,"['time1', 'time2', 'time3']","['19', '39', '49']"
"2IAPahTER2q65V8labGmLd9VyB","oADUlkMwnXlxJPguEU1lLfcpSE",637425,111,FALSE,10995,"['time4', 'time5', 'time6']","['74', '90', '100']"
"2IAPahTER2q65V8labGmLd9VyB","oADUlkMwnXlxJPguEU1lLfcpSE",653645,112,FALSE,16214,"['space1', 'space2', 'space3']","['100', '100', '100']"
"2IAPahTER2q65V8labGmLd9VyB","oADUlkMwnXlxJPguEU1lLfcpSE",667625,113,FALSE,13973,"['space4', 'space5', 'space6']","['59', '70', '100']"
"2IAPahTER2q65V8labGmLd9VyB","oADUlkMwnXlxJPguEU1lLfcpSE",689771,114,FALSE,22141,"['confidence_interval1', 'confidence_interval2', 'confidence_interval3']","['69', '90', '100']"
"2Ibpve15BFt7T07Lh0Cs6sMquO","dwaqbKw9qiggvTrlqWGpegBsQK",1802413,496,FALSE,45804,"['trinary_A', 'trinary_B', 'trinary_C', 'trinary_AB', 'trinary_BC']","['30', '30', '40', '59', '70']"
"2Ibpve15BFt7T07Lh0Cs6sMquO","dwaqbKw9qiggvTrlqWGpegBsQK",1823407,497,FALSE,20990,"['binary_statepop1', 'binary_statearea1', 'binary_gdp1']","['70', '59', '79']"
"2Ibpve15BFt7T07Lh0Cs6sMquO","dwaqbKw9qiggvTrlqWGpegBsQK",1840281,498,FALSE,16870,"['binary_statepop2', 'binary_statearea2', 'binary_gdp2']","['30', '39', '19']"
"2Ibpve15BFt7T07Lh0Cs6sMquO","dwaqbKw9qiggvTrlqWGpegBsQK",1864273,499,FALSE,24007,"['time1', 'time2', 'time3']","['10', '29', '39']"
"2Ibpve15BFt7T07Lh0Cs6sMquO","dwaqbKw9qiggvTrlqWGpegBsQK",1881979,500,FALSE,17703,"['time4', 'time5', 'time6']","['9', '29', '39']"
"2Ibpve15BFt7T07Lh0Cs6sMquO","dwaqbKw9qiggvTrlqWGpegBsQK",1908282,501,FALSE,26318,"['space1', 'space2', 'space3']","['89', '95', '100']"
"2Ibpve15BFt7T07Lh0Cs6sMquO","dwaqbKw9qiggvTrlqWGpegBsQK",1924244,502,FALSE,15958,"['space4', 'space5', 'space6']","['20', '26', '33']"
"2Ibpve15BFt7T07Lh0Cs6sMquO","dwaqbKw9qiggvTrlqWGpegBsQK",1942653,503,FALSE,18406,"['confidence_interval1', 'confidence_interval2', 'confidence_interval3']","['59', '69', '79']"
"2kFcDYk61xgzZHmkFH8bb2RKup","A6tS0Bd4QKDKOhutxeiQWBECZR",297765,20,FALSE,70777,"['trinary_A', 'trinary_B', 'trinary_C', 'trinary_AB', 'trinary_BC']","['60', '70', '85', '65', '90']"
"2kFcDYk61xgzZHmkFH8bb2RKup","A6tS0Bd4QKDKOhutxeiQWBECZR",324787,21,FALSE,27018,"['binary_statepop1', 'binary_statearea1', 'binary_gdp1']","['80', '60', '50']"
"2kFcDYk61xgzZHmkFH8bb2RKup","A6tS0Bd4QKDKOhutxeiQWBECZR",343995,22,FALSE,19206,"['binary_statepop2', 'binary_statearea2', 'binary_gdp2']","['50', '40', '50']"
"2kFcDYk61xgzZHmkFH8bb2RKup","A6tS0Bd4QKDKOhutxeiQWBECZR",369365,23,FALSE,25368,"['time1', 'time2', 'time3']","['70', '80', '90']"
"2kFcDYk61xgzZHmkFH8bb2RKup","A6tS0Bd4QKDKOhutxeiQWBECZR",388070,24,FALSE,18700,"['time4', 'time5', 'time6']","['60', '70', '80']"
"2kFcDYk61xgzZHmkFH8bb2RKup","A6tS0Bd4QKDKOhutxeiQWBECZR",421416,25,FALSE,33344,"['space1', 'space2', 'space3']","['70', '90', '99']"
"2kFcDYk61xgzZHmkFH8bb2RKup","A6tS0Bd4QKDKOhutxeiQWBECZR",443076,26,FALSE,21656,"['space4', 'space5', 'space6']","['60', '70', '90']"
"2kFcDYk61xgzZHmkFH8bb2RKup","A6tS0Bd4QKDKOhutxeiQWBECZR",479033,27,FALSE,35954,"['confidence_interval1', 'confidence_interval2', 'confidence_interval3']","['80', '85', '94']"
"2KRWlhry8hXugjECoOimhKHyu5","g9ktcU1YiHKJUwwiVjKJaVBu0k",104441,12,FALSE,74448,"['trinary_A', 'trinary_B', 'trinary_C', 'trinary_AB', 'trinary_BC']","['17', '66', '53', '44', '88']"
"2KRWlhry8hXugjECoOimhKHyu5","g9ktcU1YiHKJUwwiVjKJaVBu0k",131591,13,FALSE,27144,"['binary_statepop1', 'binary_statearea1', 'binary_gdp1']","['96', '99', '100']"
"2KRWlhry8hXugjECoOimhKHyu5","g9ktcU1YiHKJUwwiVjKJaVBu0k",151525,14,FALSE,19924,"['binary_statepop2', 'binary_statearea2', 'binary_gdp2']","['4', '4', '2']"
"2KRWlhry8hXugjECoOimhKHyu5","g9ktcU1YiHKJUwwiVjKJaVBu0k",185723,15,FALSE,34192,"['time1', 'time2', 'time3']","['4', '8', '12']"
"2KRWlhry8hXugjECoOimhKHyu5","g9ktcU1YiHKJUwwiVjKJaVBu0k",199973,16,FALSE,14245,"['time4', 'time5', 'time6']","['14', '19', '26']"
"2KRWlhry8hXugjECoOimhKHyu5","g9ktcU1YiHKJUwwiVjKJaVBu0k",227190,17,FALSE,27213,"['space1', 'space2', 'space3']","['65', '79', '100']"
"2KRWlhry8hXugjECoOimhKHyu5","g9ktcU1YiHKJUwwiVjKJaVBu0k",242739,18,FALSE,15542,"['space4', 'space5', 'space6']","['49', '61', '76']"
"2KRWlhry8hXugjECoOimhKHyu5","g9ktcU1YiHKJUwwiVjKJaVBu0k",257225,19,FALSE,14479,"['confidence_interval1', 'confidence_interval2', 'confidence_interval3']","['60', '74', '90']"
"2NCG8KpHpVcw40nODxbJ3TWyM0","Yhcb9pUFWLTdcyB8op3fhBMVC5",49789,12,FALSE,36618,"['trinary_A', 'trinary_B', 'trinary_C', 'trinary_AB', 'trinary_BC']","['24', '43', '46', '38', '75']"
"2NCG8KpHpVcw40nODxbJ3TWyM0","Yhcb9pUFWLTdcyB8op3fhBMVC5",73479,13,FALSE,23684,"['binary_statepop1', 'binary_statearea1', 'binary_gdp1']","['87', '34', '78']"
"2NCG8KpHpVcw40nODxbJ3TWyM0","Yhcb9pUFWLTdcyB8op3fhBMVC5",85435,14,FALSE,11951,"['binary_statepop2', 'binary_statearea2', 'binary_gdp2']","['11', '82', '21']"
"2NCG8KpHpVcw40nODxbJ3TWyM0","Yhcb9pUFWLTdcyB8op3fhBMVC5",101469,15,FALSE,16030,"['time1', 'time2', 'time3']","['36', '64', '80']"
"2NCG8KpHpVcw40nODxbJ3TWyM0","Yhcb9pUFWLTdcyB8op3fhBMVC5",112217,16,FALSE,10745,"['time4', 'time5', 'time6']","['69', '85', '93']"
"2NCG8KpHpVcw40nODxbJ3TWyM0","Yhcb9pUFWLTdcyB8op3fhBMVC5",129950,17,FALSE,17729,"['space1', 'space2', 'space3']","['50', '90', '99']"
"2NCG8KpHpVcw40nODxbJ3TWyM0","Yhcb9pUFWLTdcyB8op3fhBMVC5",146902,18,FALSE,16947,"['space4', 'space5', 'space6']","['19', '36', '51']"
"2NCG8KpHpVcw40nODxbJ3TWyM0","Yhcb9pUFWLTdcyB8op3fhBMVC5",167066,19,FALSE,20160,"['confidence_interval1', 'confidence_interval2', 'confidence_interval3']","['43', '47', '60']"
"2oVIiZjinndSKhVOAfMCb8PUJv","tTLn4qsFlqDTziOU5BKr1ySiJ4",525399,368,FALSE,30607,"['trinary_A', 'trinary_B', 'trinary_C', 'trinary_AB', 'trinary_BC']","['20', '39', '60', '14', '80']"
"2oVIiZjinndSKhVOAfMCb8PUJv","tTLn4qsFlqDTziOU5BKr1ySiJ4",550196,369,FALSE,24790,"['binary_statepop1', 'binary_statearea1', 'binary_gdp1']","['75', '28', '73']"
"2oVIiZjinndSKhVOAfMCb8PUJv","tTLn4qsFlqDTziOU5BKr1ySiJ4",562173,370,FALSE,11970,"['binary_statepop2', 'binary_statearea2', 'binary_gdp2']","['21', '82', '20']"
"2oVIiZjinndSKhVOAfMCb8PUJv","tTLn4qsFlqDTziOU5BKr1ySiJ4",581249,371,FALSE,19074,"['time1', 'time2', 'time3']","['60', '69', '79']"
"2oVIiZjinndSKhVOAfMCb8PUJv","tTLn4qsFlqDTziOU5BKr1ySiJ4",597093,372,FALSE,15841,"['time4', 'time5', 'time6']","['60', '67', '75']"
"2oVIiZjinndSKhVOAfMCb8PUJv","tTLn4qsFlqDTziOU5BKr1ySiJ4",618164,373,FALSE,21067,"['space1', 'space2', 'space3']","['85', '81', '100']"
"2oVIiZjinndSKhVOAfMCb8PUJv","tTLn4qsFlqDTziOU5BKr1ySiJ4",631511,374,FALSE,13339,"['space4', 'space5', 'space6']","['45', '65', '100']"
"2oVIiZjinndSKhVOAfMCb8PUJv","tTLn4qsFlqDTziOU5BKr1ySiJ4",667372,375,FALSE,35855,"['confidence_interval1', 'confidence_interval2', 'confidence_interval3']","['38', '43', '51']"
"2p2RkuvbMlDmcQO7ALZNcy7BVB","9oqcph6pnVaJOkbP7ulAngQboY",584546,35,TRUE,102593,"['trinary_A', 'trinary_B', 'trinary_C', 'trinary_AB', 'trinary_BC']","['0', '0', '100', '0', '0']"
"2p2RkuvbMlDmcQO7ALZNcy7BVB","9oqcph6pnVaJOkbP7ulAngQboY",646216,36,TRUE,61656,"['binary_statepop1', 'binary_statearea1', 'binary_gdp1']","['0', '0', '0']"
"2p2RkuvbMlDmcQO7ALZNcy7BVB","9oqcph6pnVaJOkbP7ulAngQboY",708115,37,TRUE,61891,"['binary_statepop2', 'binary_statearea2', 'binary_gdp2']","['0', '0', '0']"
"2p2RkuvbMlDmcQO7ALZNcy7BVB","9oqcph6pnVaJOkbP7ulAngQboY",769781,38,TRUE,61652,"['time1', 'time2', 'time3']","['0', '0', '0']"
"2p2RkuvbMlDmcQO7ALZNcy7BVB","9oqcph6pnVaJOkbP7ulAngQboY",831304,39,TRUE,61520,"['time4', 'time5', 'time6']","['0', '0', '0']"
"2p2RkuvbMlDmcQO7ALZNcy7BVB","9oqcph6pnVaJOkbP7ulAngQboY",896248,40,TRUE,61593,"['space1', 'space2', 'space3']","['0', '0', '0']"
"2p2RkuvbMlDmcQO7ALZNcy7BVB","9oqcph6pnVaJOkbP7ulAngQboY",957949,41,TRUE,61695,"['space4', 'space5', 'space6']","['0', '0', '0']"
"2p2RkuvbMlDmcQO7ALZNcy7BVB","9oqcph6pnVaJOkbP7ulAngQboY",1019475,42,TRUE,61522,"['confidence_interval1', 'confidence_interval2', 'confidence_interval3']","['0', '0', '0']"
"2pImB3BA3YLxVN9QOEhOPSR55b","xwhPZjGhHy0iDwCs4Vh0sb9FBG",1734129,69,FALSE,48201,"['trinary_A', 'trinary_B', 'trinary_C', 'trinary_AB', 'trinary_BC']","['29', '49', '89', '9', '90']"
"2pImB3BA3YLxVN9QOEhOPSR55b","xwhPZjGhHy0iDwCs4Vh0sb9FBG",1761177,70,FALSE,27037,"['binary_statepop1', 'binary_statearea1', 'binary_gdp1']","['100', '50', '100']"
"2pImB3BA3YLxVN9QOEhOPSR55b","xwhPZjGhHy0iDwCs4Vh0sb9FBG",1780674,71,FALSE,19488,"['binary_statepop2', 'binary_statearea2', 'binary_gdp2']","['9', '40', '0']"
"2pImB3BA3YLxVN9QOEhOPSR55b","xwhPZjGhHy0iDwCs4Vh0sb9FBG",1802458,72,FALSE,21776,"['time1', 'time2', 'time3']","['10', '9', '10']"
"2pImB3BA3YLxVN9QOEhOPSR55b","xwhPZjGhHy0iDwCs4Vh0sb9FBG",1817250,73,FALSE,14787,"['time4', 'time5', 'time6']","['9', '10', '9']"
"2pImB3BA3YLxVN9QOEhOPSR55b","xwhPZjGhHy0iDwCs4Vh0sb9FBG",1841858,74,FALSE,24604,"['space1', 'space2', 'space3']","['100', '100', '100']"
"2pImB3BA3YLxVN9QOEhOPSR55b","xwhPZjGhHy0iDwCs4Vh0sb9FBG",1852994,75,FALSE,11132,"['space4', 'space5', 'space6']","['100', '100', '100']"
"2pImB3BA3YLxVN9QOEhOPSR55b","xwhPZjGhHy0iDwCs4Vh0sb9FBG",1870249,76,FALSE,17250,"['confidence_interval1', 'confidence_interval2', 'confidence_interval3']","['50', '39', '59']"
"2RtPMbFJ5EI1NUfXYKVCpd70Tv","1h2WeKPyiYPcIVL4H3o0bOXxCO",243890,12,FALSE,63692,"['trinary_A', 'trinary_B', 'trinary_C', 'trinary_AB', 'trinary_BC']","['27', '29', '84', '23', '89']"
"2RtPMbFJ5EI1NUfXYKVCpd70Tv","1h2WeKPyiYPcIVL4H3o0bOXxCO",300014,13,FALSE,56119,"['binary_statepop1', 'binary_statearea1', 'binary_gdp1']","['90', '59', '60']"
"2RtPMbFJ5EI1NUfXYKVCpd70Tv","1h2WeKPyiYPcIVL4H3o0bOXxCO",341110,14,FALSE,41093,"['binary_statepop2', 'binary_statearea2', 'binary_gdp2']","['20', '20', '30']"
"2RtPMbFJ5EI1NUfXYKVCpd70Tv","1h2WeKPyiYPcIVL4H3o0bOXxCO",369088,15,FALSE,27975,"['time1', 'time2', 'time3']","['45', '42', '40']"
"2RtPMbFJ5EI1NUfXYKVCpd70Tv","1h2WeKPyiYPcIVL4H3o0bOXxCO",381806,16,FALSE,12715,"['time4', 'time5', 'time6']","['70', '77', '82']"
"2RtPMbFJ5EI1NUfXYKVCpd70Tv","1h2WeKPyiYPcIVL4H3o0bOXxCO",399976,17,FALSE,18167,"['space1', 'space2', 'space3']","['74', '82', '93']"
"2RtPMbFJ5EI1NUfXYKVCpd70Tv","1h2WeKPyiYPcIVL4H3o0bOXxCO",433065,18,FALSE,33085,"['space4', 'space5', 'space6']","['30', '32', '33']"
"2RtPMbFJ5EI1NUfXYKVCpd70Tv","1h2WeKPyiYPcIVL4H3o0bOXxCO",479583,19,FALSE,46515,"['confidence_interval1', 'confidence_interval2', 'confidence_interval3']","['90', '93', '100']"
"2s7L6hjw0aVfIiOHqEf92R92CI","kLLIRYri4E9sParEwifQ3cDSd4",1525530,368,FALSE,72344,"['trinary_A', 'trinary_B', 'trinary_C', 'trinary_AB', 'trinary_BC']","['3', '10', '10', '30', '59']"
"2s7L6hjw0aVfIiOHqEf92R92CI","kLLIRYri4E9sParEwifQ3cDSd4",1553258,369,FALSE,27726,"['binary_statepop1', 'binary_statearea1', 'binary_gdp1']","['70', '100', '89']"
"2s7L6hjw0aVfIiOHqEf92R92CI","kLLIRYri4E9sParEwifQ3cDSd4",1572878,370,FALSE,19617,"['binary_statepop2', 'binary_statearea2', 'binary_gdp2']","['19', '10', '20']"
"2s7L6hjw0aVfIiOHqEf92R92CI","kLLIRYri4E9sParEwifQ3cDSd4",1610487,371,FALSE,37605,"['time1', 'time2', 'time3']","['29', '50', '70']"
"2s7L6hjw0aVfIiOHqEf92R92CI","kLLIRYri4E9sParEwifQ3cDSd4",1638269,372,FALSE,27779,"['time4', 'time5', 'time6']","['50', '70', '100']"
"2s7L6hjw0aVfIiOHqEf92R92CI","kLLIRYri4E9sParEwifQ3cDSd4",1674664,373,FALSE,36392,"['space1', 'space2', 'space3']","['80', '79', '100']"
"2s7L6hjw0aVfIiOHqEf92R92CI","kLLIRYri4E9sParEwifQ3cDSd4",1695682,374,FALSE,21016,"['space4', 'space5', 'space6']","['70', '85', '95']"
"2s7L6hjw0aVfIiOHqEf92R92CI","kLLIRYri4E9sParEwifQ3cDSd4",1725297,375,FALSE,29612,"['confidence_interval1', 'confidence_interval2', 'confidence_interval3']","['6', '25', '88']"
"2tMJcwUb0jCy9PamYQNgCCBCdA","FR0JMuBDrFlKrLRI6tj87TY9px",1853105,608,FALSE,53313,"['trinary_A', 'trinary_B', 'trinary_C', 'trinary_AB', 'trinary_BC']","['9', '22', '69', '29', '87']"
"2tMJcwUb0jCy9PamYQNgCCBCdA","FR0JMuBDrFlKrLRI6tj87TY9px",1883125,609,FALSE,30014,"['binary_statepop1', 'binary_statearea1', 'binary_gdp1']","['70', '59', '59']"
"2tMJcwUb0jCy9PamYQNgCCBCdA","FR0JMuBDrFlKrLRI6tj87TY9px",1896563,610,FALSE,13433,"['binary_statepop2', 'binary_statearea2', 'binary_gdp2']","['50', '59', '28']"
"2tMJcwUb0jCy9PamYQNgCCBCdA","FR0JMuBDrFlKrLRI6tj87TY9px",1912226,611,FALSE,15656,"['time1', 'time2', 'time3']","['70', '60', '49']"
"2tMJcwUb0jCy9PamYQNgCCBCdA","FR0JMuBDrFlKrLRI6tj87TY9px",1932991,612,FALSE,20759,"['time4', 'time5', 'time6']","['79', '85', '90']"
"2tMJcwUb0jCy9PamYQNgCCBCdA","FR0JMuBDrFlKrLRI6tj87TY9px",1950796,613,FALSE,17801,"['space1', 'space2', 'space3']","['69', '79', '98']"
"2tMJcwUb0jCy9PamYQNgCCBCdA","FR0JMuBDrFlKrLRI6tj87TY9px",1966956,614,FALSE,16156,"['space4', 'space5', 'space6']","['50', '69', '82']"
"2tMJcwUb0jCy9PamYQNgCCBCdA","FR0JMuBDrFlKrLRI6tj87TY9px",2027964,615,TRUE,61002,"['confidence_interval1', 'confidence_interval2', 'confidence_interval3']","['72', '49', '68']"
"2UxadonClxNGbWsfVWxyUFWlXD","GHzAm81BiLMQYbsByWM6DE5wNu",25012260,1169,FALSE,31205,"['trinary_A', 'trinary_B', 'trinary_C', 'trinary_AB', 'trinary_BC']","['9', '14', '70', '12', '90']"
"2UxadonClxNGbWsfVWxyUFWlXD","GHzAm81BiLMQYbsByWM6DE5wNu",25039794,1170,FALSE,27532,"['binary_statepop1', 'binary_statearea1', 'binary_gdp1']","['59', '59', '49']"
"2UxadonClxNGbWsfVWxyUFWlXD","GHzAm81BiLMQYbsByWM6DE5wNu",25046658,1171,FALSE,6862,"['binary_statepop2', 'binary_statearea2', 'binary_gdp2']","['49', '50', '50']"
"2UxadonClxNGbWsfVWxyUFWlXD","GHzAm81BiLMQYbsByWM6DE5wNu",25071761,1172,FALSE,25101,"['time1', 'time2', 'time3']","['20', '29', '37']"
"2UxadonClxNGbWsfVWxyUFWlXD","GHzAm81BiLMQYbsByWM6DE5wNu",25081063,1173,FALSE,9300,"['time4', 'time5', 'time6']","['24', '31', '37']"
"2UxadonClxNGbWsfVWxyUFWlXD","GHzAm81BiLMQYbsByWM6DE5wNu",25092084,1174,FALSE,11018,"['space1', 'space2', 'space3']","['33', '47', '64']"
"2UxadonClxNGbWsfVWxyUFWlXD","GHzAm81BiLMQYbsByWM6DE5wNu",25100789,1175,FALSE,8704,"['space4', 'space5', 'space6']","['24', '34', '46']"
"2UxadonClxNGbWsfVWxyUFWlXD","GHzAm81BiLMQYbsByWM6DE5wNu",25115170,1176,FALSE,14379,"['confidence_interval1', 'confidence_interval2', 'confidence_interval3']","['44', '54', '65']"
"2v7UmJHwr1oTn6hdKFwkrsAxE8","2Q6l7iQ828VEzdYYWlbgMTkQDC",2766236,1225,FALSE,66181,"['trinary_A', 'trinary_B', 'trinary_C', 'trinary_AB', 'trinary_BC']","['10', '30', '50', '50', '80']"
"2v7UmJHwr1oTn6hdKFwkrsAxE8","2Q6l7iQ828VEzdYYWlbgMTkQDC",2789686,1226,FALSE,23437,"['binary_statepop1', 'binary_statearea1', 'binary_gdp1']","['60', '80', '71']"
"2v7UmJHwr1oTn6hdKFwkrsAxE8","2Q6l7iQ828VEzdYYWlbgMTkQDC",2801941,1227,FALSE,12247,"['binary_statepop2', 'binary_statearea2', 'binary_gdp2']","['29', '18', '30']"
"2v7UmJHwr1oTn6hdKFwkrsAxE8","2Q6l7iQ828VEzdYYWlbgMTkQDC",2818482,1228,FALSE,16534,"['time1', 'time2', 'time3']","['9', '20', '29']"
"2v7UmJHwr1oTn6hdKFwkrsAxE8","2Q6l7iQ828VEzdYYWlbgMTkQDC",2830344,1229,FALSE,11855,"['time4', 'time5', 'time6']","['30', '50', '73']"
"2v7UmJHwr1oTn6hdKFwkrsAxE8","2Q6l7iQ828VEzdYYWlbgMTkQDC",2862821,1230,FALSE,32471,"['space1', 'space2', 'space3']","['80', '93', '99']"
"2v7UmJHwr1oTn6hdKFwkrsAxE8","2Q6l7iQ828VEzdYYWlbgMTkQDC",2884056,1231,FALSE,21230,"['space4', 'space5', 'space6']","['40', '67', '96']"
"2v7UmJHwr1oTn6hdKFwkrsAxE8","2Q6l7iQ828VEzdYYWlbgMTkQDC",2914768,1232,FALSE,30705,"['confidence_interval1', 'confidence_interval2', 'confidence_interval3']","['7', '19', '29']"
"2wH3MZsxiO7fVJUpn4o7wiiqMP","KhdkeTuJrF3oc9baoQFx8ULDMK",1819616,58,FALSE,91266,"['trinary_A', 'trinary_B', 'trinary_C', 'trinary_AB', 'trinary_BC']","['48', '85', '19', '100', '82']"
"2wH3MZsxiO7fVJUpn4o7wiiqMP","KhdkeTuJrF3oc9baoQFx8ULDMK",1856338,59,FALSE,36708,"['binary_statepop1', 'binary_statearea1', 'binary_gdp1']","['79', '68', '100']"
"2wH3MZsxiO7fVJUpn4o7wiiqMP","KhdkeTuJrF3oc9baoQFx8ULDMK",1904988,60,FALSE,48634,"['binary_statepop2', 'binary_statearea2', 'binary_gdp2']","['20', '18', '21']"
"2wH3MZsxiO7fVJUpn4o7wiiqMP","KhdkeTuJrF3oc9baoQFx8ULDMK",1934491,61,FALSE,29488,"['time1', 'time2', 'time3']","['59', '72', '87']"
"2wH3MZsxiO7fVJUpn4o7wiiqMP","KhdkeTuJrF3oc9baoQFx8ULDMK",1982227,62,FALSE,47717,"['time4', 'time5', 'time6']","['67', '79', '90']"
"2wH3MZsxiO7fVJUpn4o7wiiqMP","KhdkeTuJrF3oc9baoQFx8ULDMK",2030050,63,FALSE,47807,"['space1', 'space2', 'space3']","['39', '51', '68']"
"2wH3MZsxiO7fVJUpn4o7wiiqMP","KhdkeTuJrF3oc9baoQFx8ULDMK",2051400,64,FALSE,21336,"['space4', 'space5', 'space6']","['68', '85', '100']"
"2wH3MZsxiO7fVJUpn4o7wiiqMP","KhdkeTuJrF3oc9baoQFx8ULDMK",2109804,65,FALSE,58383,"['confidence_interval1', 'confidence_interval2', 'confidence_interval3']","['98', '86', '89']"
"2X64KhtgQiPec1qIy7DrVmmYiZ","Zrbu3sLt5nAiclrIJ5HyMLQnVG",5729217,1239,FALSE,32630,"['trinary_A', 'trinary_B', 'trinary_C', 'trinary_AB', 'trinary_BC']","['50', '59', '69', '30', '60']"
"2X64KhtgQiPec1qIy7DrVmmYiZ","Zrbu3sLt5nAiclrIJ5HyMLQnVG",5745546,1240,FALSE,16319,"['binary_statepop1', 'binary_statearea1', 'binary_gdp1']","['89', '90', '50']"
"2X64KhtgQiPec1qIy7DrVmmYiZ","Zrbu3sLt5nAiclrIJ5HyMLQnVG",5758610,1241,FALSE,13056,"['binary_statepop2', 'binary_statearea2', 'binary_gdp2']","['12', '90', '51']"
"2X64KhtgQiPec1qIy7DrVmmYiZ","Zrbu3sLt5nAiclrIJ5HyMLQnVG",5772854,1242,FALSE,14231,"['time1', 'time2', 'time3']","['10', '30', '50']"
"2X64KhtgQiPec1qIy7DrVmmYiZ","Zrbu3sLt5nAiclrIJ5HyMLQnVG",5783871,1243,FALSE,11010,"['time4', 'time5', 'time6']","['59', '70', '80']"
"2X64KhtgQiPec1qIy7DrVmmYiZ","Zrbu3sLt5nAiclrIJ5HyMLQnVG",5799705,1244,FALSE,15823,"['space1', 'space2', 'space3']","['89', '100', '100']"
"2X64KhtgQiPec1qIy7DrVmmYiZ","Zrbu3sLt5nAiclrIJ5HyMLQnVG",5818527,1245,FALSE,18815,"['space4', 'space5', 'space6']","['39', '30', '100']"
"2X64KhtgQiPec1qIy7DrVmmYiZ","Zrbu3sLt5nAiclrIJ5HyMLQnVG",5830639,1246,FALSE,12105,"['confidence_interval1', 'confidence_interval2', 'confidence_interval3']","['50', '39', '20']"
"2zZ4xnXCGxtAkFktuCMrgE3cYR","Q4y6LZNYAr1seXuXn3JJgYeXYF",409659,80,FALSE,46172,"['trinary_A', 'trinary_B', 'trinary_C', 'trinary_AB', 'trinary_BC']","['91', '93', '100', '89', '100']"
"2zZ4xnXCGxtAkFktuCMrgE3cYR","Q4y6LZNYAr1seXuXn3JJgYeXYF",432354,81,FALSE,22691,"['binary_statepop1', 'binary_statearea1', 'binary_gdp1']","['90', '70', '79']"
"2zZ4xnXCGxtAkFktuCMrgE3cYR","Q4y6LZNYAr1seXuXn3JJgYeXYF",444984,82,FALSE,12628,"['binary_statepop2', 'binary_statearea2', 'binary_gdp2']","['10', '20', '10']"
"2zZ4xnXCGxtAkFktuCMrgE3cYR","Q4y6LZNYAr1seXuXn3JJgYeXYF",467915,83,FALSE,22928,"['time1', 'time2', 'time3']","['30', '40', '65']"
"2zZ4xnXCGxtAkFktuCMrgE3cYR","Q4y6LZNYAr1seXuXn3JJgYeXYF",480328,84,FALSE,12410,"['time4', 'time5', 'time6']","['40', '54', '75']"
"2zZ4xnXCGxtAkFktuCMrgE3cYR","Q4y6LZNYAr1seXuXn3JJgYeXYF",504702,85,FALSE,24373,"['space1', 'space2', 'space3']","['70', '97', '100']"
"2zZ4xnXCGxtAkFktuCMrgE3cYR","Q4y6LZNYAr1seXuXn3JJgYeXYF",529327,86,FALSE,24622,"['space4', 'space5', 'space6']","['40', '60', '99']"
"2zZ4xnXCGxtAkFktuCMrgE3cYR","Q4y6LZNYAr1seXuXn3JJgYeXYF",560900,87,FALSE,31570,"['confidence_interval1', 'confidence_interval2', 'confidence_interval3']","['20', '66', '97']"
"31Bnid4HBnnPxo4LhagKetLugi","PWY4Ak8wHUXGkU0Ke6607Vw8IN",4125421,560,TRUE,100999,"['trinary_A', 'trinary_B', 'trinary_C', 'trinary_AB', 'trinary_BC']","['10', '19', '90', '6', '0']"
"31Bnid4HBnnPxo4LhagKetLugi","PWY4Ak8wHUXGkU0Ke6607Vw8IN",4186422,561,TRUE,61000,"['binary_statepop1', 'binary_statearea1', 'binary_gdp1']","['80', '59', '50']"
"31Bnid4HBnnPxo4LhagKetLugi","PWY4Ak8wHUXGkU0Ke6607Vw8IN",4210876,562,FALSE,24452,"['binary_statepop2', 'binary_statearea2', 'binary_gdp2']","['10', '39', '9']"
"31Bnid4HBnnPxo4LhagKetLugi","PWY4Ak8wHUXGkU0Ke6607Vw8IN",4236510,563,FALSE,25630,"['time1', 'time2', 'time3']","['75', '80', '90']"
"31Bnid4HBnnPxo4LhagKetLugi","PWY4Ak8wHUXGkU0Ke6607Vw8IN",4259850,564,FALSE,23336,"['time4', 'time5', 'time6']","['9', '15', '19']"
"31Bnid4HBnnPxo4LhagKetLugi","PWY4Ak8wHUXGkU0Ke6607Vw8IN",4320852,565,TRUE,60999,"['space1', 'space2', 'space3']","['64', '75', '100']"
"31Bnid4HBnnPxo4LhagKetLugi","PWY4Ak8wHUXGkU0Ke6607Vw8IN",4348632,566,FALSE,27778,"['space4', 'space5', 'space6']","['40', '60', '89']"
"31Bnid4HBnnPxo4LhagKetLugi","PWY4Ak8wHUXGkU0Ke6607Vw8IN",4393243,567,FALSE,44608,"['confidence_interval1', 'confidence_interval2', 'confidence_interval3']","['69', '80', '92']"
"34XyeAHTvluzgZMDEBfnsjLcFO","jM8bNNDRlrwLp9hwmNPBucJcT2",899091,102,FALSE,38064,"['trinary_A', 'trinary_B', 'trinary_C', 'trinary_AB', 'trinary_BC']","['60', '66', '30', '30', '26']"
"34XyeAHTvluzgZMDEBfnsjLcFO","jM8bNNDRlrwLp9hwmNPBucJcT2",917628,103,FALSE,18533,"['binary_statepop1', 'binary_statearea1', 'binary_gdp1']","['69', '59', '85']"
"34XyeAHTvluzgZMDEBfnsjLcFO","jM8bNNDRlrwLp9hwmNPBucJcT2",930603,104,FALSE,12972,"['binary_statepop2', 'binary_statearea2', 'binary_gdp2']","['26', '29', '10']"
"34XyeAHTvluzgZMDEBfnsjLcFO","jM8bNNDRlrwLp9hwmNPBucJcT2",952600,105,FALSE,21993,"['time1', 'time2', 'time3']","['1', '1', '1']"
"34XyeAHTvluzgZMDEBfnsjLcFO","jM8bNNDRlrwLp9hwmNPBucJcT2",968949,106,FALSE,16347,"['time4', 'time5', 'time6']","['1', '1', '1']"
"34XyeAHTvluzgZMDEBfnsjLcFO","jM8bNNDRlrwLp9hwmNPBucJcT2",987513,107,FALSE,18562,"['space1', 'space2', 'space3']","['75', '96', '100']"
"34XyeAHTvluzgZMDEBfnsjLcFO","jM8bNNDRlrwLp9hwmNPBucJcT2",1009122,108,FALSE,21606,"['space4', 'space5', 'space6']","['2', '5', '19']"
"34XyeAHTvluzgZMDEBfnsjLcFO","jM8bNNDRlrwLp9hwmNPBucJcT2",1033114,109,FALSE,23989,"['confidence_interval1', 'confidence_interval2', 'confidence_interval3']","['30', '37', '42']"
"3bgOaJAJh5EkiEQMcsw5BHgiTH","FcMuT7kYzZCoVtHsK5tIAiW4AB",1488880,52,FALSE,78040,"['trinary_A', 'trinary_B', 'trinary_C', 'trinary_AB', 'trinary_BC']","['0', '0', '100', '0', '100']"
"3bgOaJAJh5EkiEQMcsw5BHgiTH","FcMuT7kYzZCoVtHsK5tIAiW4AB",1534321,53,FALSE,45429,"['binary_statepop1', 'binary_statearea1', 'binary_gdp1']","['79', '40', '89']"
"3bgOaJAJh5EkiEQMcsw5BHgiTH","FcMuT7kYzZCoVtHsK5tIAiW4AB",1558035,54,FALSE,23708,"['binary_statepop2', 'binary_statearea2', 'binary_gdp2']","['10', '59', '10']"
"3bgOaJAJh5EkiEQMcsw5BHgiTH","FcMuT7kYzZCoVtHsK5tIAiW4AB",1587801,55,FALSE,29761,"['time1', 'time2', 'time3']","['50', '70', '80']"
"3bgOaJAJh5EkiEQMcsw5BHgiTH","FcMuT7kYzZCoVtHsK5tIAiW4AB",1613916,56,FALSE,26107,"['time4', 'time5', 'time6']","['20', '39', '50']"
"3bgOaJAJh5EkiEQMcsw5BHgiTH","FcMuT7kYzZCoVtHsK5tIAiW4AB",1648393,57,FALSE,34470,"['space1', 'space2', 'space3']","['70', '79', '90']"
"3bgOaJAJh5EkiEQMcsw5BHgiTH","FcMuT7kYzZCoVtHsK5tIAiW4AB",1679137,58,FALSE,30738,"['space4', 'space5', 'space6']","['50', '70', '90']"
"3bgOaJAJh5EkiEQMcsw5BHgiTH","FcMuT7kYzZCoVtHsK5tIAiW4AB",1700176,59,FALSE,21033,"['confidence_interval1', 'confidence_interval2', 'confidence_interval3']","['94', '94', '95']"
"3cfwf1AC3xWQunoJYhcfQwZqFH","creqVgj7Q8iJdkk81jr5rAi7IV",608794,27,FALSE,66352,"['trinary_A', 'trinary_B', 'trinary_C', 'trinary_AB', 'trinary_BC']","['9', '16', '100', '4', '100']"
"3cfwf1AC3xWQunoJYhcfQwZqFH","creqVgj7Q8iJdkk81jr5rAi7IV",633705,28,FALSE,24908,"['binary_statepop1', 'binary_statearea1', 'binary_gdp1']","['100', '86', '100']"
"3cfwf1AC3xWQunoJYhcfQwZqFH","creqVgj7Q8iJdkk81jr5rAi7IV",656473,29,FALSE,22763,"['binary_statepop2', 'binary_statearea2', 'binary_gdp2']","['20', '26', '18']"
"3cfwf1AC3xWQunoJYhcfQwZqFH","creqVgj7Q8iJdkk81jr5rAi7IV",675076,30,FALSE,18599,"['time1', 'time2', 'time3']","['50', '50', '59']"
"3cfwf1AC3xWQunoJYhcfQwZqFH","creqVgj7Q8iJdkk81jr5rAi7IV",692414,31,FALSE,17335,"['time4', 'time5', 'time6']","['19', '32', '51']"
"3cfwf1AC3xWQunoJYhcfQwZqFH","creqVgj7Q8iJdkk81jr5rAi7IV",721458,32,FALSE,29042,"['space1', 'space2', 'space3']","['20', '91', '100']"
"3cfwf1AC3xWQunoJYhcfQwZqFH","creqVgj7Q8iJdkk81jr5rAi7IV",746802,33,FALSE,25342,"['space4', 'space5', 'space6']","['49', '92', '100']"
"3cfwf1AC3xWQunoJYhcfQwZqFH","creqVgj7Q8iJdkk81jr5rAi7IV",781293,34,FALSE,34489,"['confidence_interval1', 'confidence_interval2', 'confidence_interval3']","['88', '75', '70']"
"3Dd19KRBYgJfCukymF2AKtuBXi","v4HAQvKAbdYrx7dPYsqw2cL0L8",1215060,375,FALSE,91925,"['trinary_A', 'trinary_B', 'trinary_C', 'trinary_AB', 'trinary_BC']","['50', '19', '73', '28', '39']"
"3Dd19KRBYgJfCukymF2AKtuBXi","v4HAQvKAbdYrx7dPYsqw2cL0L8",1242741,376,FALSE,27679,"['binary_statepop1', 'binary_statearea1', 'binary_gdp1']","['80', '80', '89']"
"3Dd19KRBYgJfCukymF2AKtuBXi","v4HAQvKAbdYrx7dPYsqw2cL0L8",1256203,377,FALSE,13461,"['binary_statepop2', 'binary_statearea2', 'binary_gdp2']","['10', '10', '10']"
"3Dd19KRBYgJfCukymF2AKtuBXi","v4HAQvKAbdYrx7dPYsqw2cL0L8",1285924,378,FALSE,29720,"['time1', 'time2', 'time3']","['10', '20', '29']"
"3Dd19KRBYgJfCukymF2AKtuBXi","v4HAQvKAbdYrx7dPYsqw2cL0L8",1300036,379,FALSE,14110,"['time4', 'time5', 'time6']","['1', '5', '9']"
"3Dd19KRBYgJfCukymF2AKtuBXi","v4HAQvKAbdYrx7dPYsqw2cL0L8",1337612,380,FALSE,37575,"['space1', 'space2', 'space3']","['70', '69', '89']"
"3Dd19KRBYgJfCukymF2AKtuBXi","v4HAQvKAbdYrx7dPYsqw2cL0L8",1365607,381,FALSE,27993,"['space4', 'space5', 'space6']","['79', '79', '99']"
"3Dd19KRBYgJfCukymF2AKtuBXi","v4HAQvKAbdYrx7dPYsqw2cL0L8",1400502,382,FALSE,34892,"['confidence_interval1', 'confidence_interval2', 'confidence_interval3']","['50', '60', '69']"
"3DkYm4TofR4RvQQmb7OLo9CNbF","otGUgWVukP1kIoHNgCZfESMjNQ",4132240,1241,FALSE,39065,"['trinary_A', 'trinary_B', 'trinary_C', 'trinary_AB', 'trinary_BC']","['1', '1', '100', '0', '100']"
"3DkYm4TofR4RvQQmb7OLo9CNbF","otGUgWVukP1kIoHNgCZfESMjNQ",4182875,1242,FALSE,50632,"['binary_statepop1', 'binary_statearea1', 'binary_gdp1']","['100', '100', '81']"
"3DkYm4TofR4RvQQmb7OLo9CNbF","otGUgWVukP1kIoHNgCZfESMjNQ",4198028,1243,FALSE,15152,"['binary_statepop2', 'binary_statearea2', 'binary_gdp2']","['11', '10', '11']"
"3DkYm4TofR4RvQQmb7OLo9CNbF","otGUgWVukP1kIoHNgCZfESMjNQ",4214667,1244,FALSE,16638,"['time1', 'time2', 'time3']","['64', '79', '81']"
"3DkYm4TofR4RvQQmb7OLo9CNbF","otGUgWVukP1kIoHNgCZfESMjNQ",4230030,1245,FALSE,15362,"['time4', 'time5', 'time6']","['50', '60', '71']"
"3DkYm4TofR4RvQQmb7OLo9CNbF","otGUgWVukP1kIoHNgCZfESMjNQ",4245215,1246,FALSE,15184,"['space1', 'space2', 'space3']","['75', '81', '85']"
"3DkYm4TofR4RvQQmb7OLo9CNbF","otGUgWVukP1kIoHNgCZfESMjNQ",4260262,1247,FALSE,15046,"['space4', 'space5', 'space6']","['69', '80', '84']"
"3DkYm4TofR4RvQQmb7OLo9CNbF","otGUgWVukP1kIoHNgCZfESMjNQ",4293965,1248,FALSE,33702,"['confidence_interval1', 'confidence_interval2', 'confidence_interval3']","['100', '100', '100']"
"3e1AHUBhyTi6cvBHTNGVFxR0Wf","ApL3fd2q2zRPXm5MYAbukUD7Py",5511362,1208,FALSE,67470,"['trinary_A', 'trinary_B', 'trinary_C', 'trinary_AB', 'trinary_BC']","['20', '39', '40', '25', '75']"
"3e1AHUBhyTi6cvBHTNGVFxR0Wf","ApL3fd2q2zRPXm5MYAbukUD7Py",5532174,1209,FALSE,20809,"['binary_statepop1', 'binary_statearea1', 'binary_gdp1']","['60', '40', '70']"
"3e1AHUBhyTi6cvBHTNGVFxR0Wf","ApL3fd2q2zRPXm5MYAbukUD7Py",5545863,1210,FALSE,13686,"['binary_statepop2', 'binary_statearea2', 'binary_gdp2']","['29', '60', '30']"
"3e1AHUBhyTi6cvBHTNGVFxR0Wf","ApL3fd2q2zRPXm5MYAbukUD7Py",5563518,1211,FALSE,17652,"['time1', 'time2', 'time3']","['9', '20', '30']"
"3e1AHUBhyTi6cvBHTNGVFxR0Wf","ApL3fd2q2zRPXm5MYAbukUD7Py",5578936,1212,FALSE,15416,"['time4', 'time5', 'time6']","['4', '10', '15']"
"3e1AHUBhyTi6cvBHTNGVFxR0Wf","ApL3fd2q2zRPXm5MYAbukUD7Py",5611774,1213,FALSE,32834,"['space1', 'space2', 'space3']","['70', '78', '99']"
"3e1AHUBhyTi6cvBHTNGVFxR0Wf","ApL3fd2q2zRPXm5MYAbukUD7Py",5634376,1214,FALSE,22598,"['space4', 'space5', 'space6']","['40', '49', '60']"
"3e1AHUBhyTi6cvBHTNGVFxR0Wf","ApL3fd2q2zRPXm5MYAbukUD7Py",5654775,1215,FALSE,20396,"['confidence_interval1', 'confidence_interval2', 'confidence_interval3']","['59', '70', '81']"
"3fy3gRAl3eiE2HMI7PmdDZy8CG","ILoy5Qgw9XAmzp2tzaUdfAmGYZ",3758657,1249,FALSE,40062,"['trinary_A', 'trinary_B', 'trinary_C', 'trinary_AB', 'trinary_BC']","['9', '16', '100', '4', '100']"
"3fy3gRAl3eiE2HMI7PmdDZy8CG","ILoy5Qgw9XAmzp2tzaUdfAmGYZ",3787339,1250,FALSE,28665,"['binary_statepop1', 'binary_statearea1', 'binary_gdp1']","['100', '100', '90']"
"3fy3gRAl3eiE2HMI7PmdDZy8CG","ILoy5Qgw9XAmzp2tzaUdfAmGYZ",3817320,1251,FALSE,29971,"['binary_statepop2', 'binary_statearea2', 'binary_gdp2']","['16', '97', '10']"
"3fy3gRAl3eiE2HMI7PmdDZy8CG","ILoy5Qgw9XAmzp2tzaUdfAmGYZ",3835030,1252,FALSE,17693,"['time1', 'time2', 'time3']","['19', '12', '4']"
"3fy3gRAl3eiE2HMI7PmdDZy8CG","ILoy5Qgw9XAmzp2tzaUdfAmGYZ",3851392,1253,FALSE,16352,"['time4', 'time5', 'time6']","['22', '39', '61']"
"3fy3gRAl3eiE2HMI7PmdDZy8CG","ILoy5Qgw9XAmzp2tzaUdfAmGYZ",3872126,1254,FALSE,20725,"['space1', 'space2', 'space3']","['92', '99', '100']"
"3fy3gRAl3eiE2HMI7PmdDZy8CG","ILoy5Qgw9XAmzp2tzaUdfAmGYZ",3887374,1255,FALSE,15239,"['space4', 'space5', 'space6']","['21', '39', '29']"
"3fy3gRAl3eiE2HMI7PmdDZy8CG","ILoy5Qgw9XAmzp2tzaUdfAmGYZ",3907777,1256,FALSE,20392,"['confidence_interval1', 'confidence_interval2', 'confidence_interval3']","['100', '100', '100']"
"3juz0LEONWYnmNZOFxavjkW1ht","xXiH3hbZhnUhsNb4RWopk9NtoW",32104965,220,FALSE,42932,"['trinary_A', 'trinary_B', 'trinary_C', 'trinary_AB', 'trinary_BC']","['29', '54', '81', '9', '73']"
"3juz0LEONWYnmNZOFxavjkW1ht","xXiH3hbZhnUhsNb4RWopk9NtoW",32141895,221,FALSE,36923,"['binary_statepop1', 'binary_statearea1', 'binary_gdp1']","['49', '38', '60']"
"3juz0LEONWYnmNZOFxavjkW1ht","xXiH3hbZhnUhsNb4RWopk9NtoW",32202901,222,TRUE,61001,"['binary_statepop2', 'binary_statearea2', 'binary_gdp2']","['3', '5', '59']"
"3juz0LEONWYnmNZOFxavjkW1ht","xXiH3hbZhnUhsNb4RWopk9NtoW",32237327,223,FALSE,34422,"['time1', 'time2', 'time3']","['59', '52', '43']"
"3juz0LEONWYnmNZOFxavjkW1ht","xXiH3hbZhnUhsNb4RWopk9NtoW",32252623,224,FALSE,15291,"['time4', 'time5', 'time6']","['44', '58', '73']"
"3juz0LEONWYnmNZOFxavjkW1ht","xXiH3hbZhnUhsNb4RWopk9NtoW",32278280,225,FALSE,25653,"['space1', 'space2', 'space3']","['38', '49', '72']"
"3juz0LEONWYnmNZOFxavjkW1ht","xXiH3hbZhnUhsNb4RWopk9NtoW",32294488,226,FALSE,16204,"['space4', 'space5', 'space6']","['65', '76', '68']"
"3juz0LEONWYnmNZOFxavjkW1ht","xXiH3hbZhnUhsNb4RWopk9NtoW",32316304,227,FALSE,21811,"['confidence_interval1', 'confidence_interval2', 'confidence_interval3']","['69', '68', '61']"
"3kJJzZtol0RQo4ede16dZrzoS3","aEJFL88RPlFU7DZsvnfMc42Is6",3041720,1069,FALSE,44447,"['trinary_A', 'trinary_B', 'trinary_C', 'trinary_AB', 'trinary_BC']","['39', '50', '70', '19', '40']"
"3kJJzZtol0RQo4ede16dZrzoS3","aEJFL88RPlFU7DZsvnfMc42Is6",3070410,1070,FALSE,28685,"['binary_statepop1', 'binary_statearea1', 'binary_gdp1']","['40', '50', '60']"
"3kJJzZtol0RQo4ede16dZrzoS3","aEJFL88RPlFU7DZsvnfMc42Is6",3085679,1071,FALSE,15264,"['binary_statepop2', 'binary_statearea2', 'binary_gdp2']","['50', '49', '40']"
"3kJJzZtol0RQo4ede16dZrzoS3","aEJFL88RPlFU7DZsvnfMc42Is6",3110731,1072,FALSE,25047,"['time1', 'time2', 'time3']","['40', '45', '54']"
"3kJJzZtol0RQo4ede16dZrzoS3","aEJFL88RPlFU7DZsvnfMc42Is6",3121132,1073,FALSE,10397,"['time4', 'time5', 'time6']","['55', '60', '66']"
"3kJJzZtol0RQo4ede16dZrzoS3","aEJFL88RPlFU7DZsvnfMc42Is6",3155252,1074,FALSE,34116,"['space1', 'space2', 'space3']","['59', '65', '80']"
"3kJJzZtol0RQo4ede16dZrzoS3","aEJFL88RPlFU7DZsvnfMc42Is6",3175256,1075,FALSE,19999,"['space4', 'space5', 'space6']","['55', '65', '74']"
"3kJJzZtol0RQo4ede16dZrzoS3","aEJFL88RPlFU7DZsvnfMc42Is6",3206322,1076,FALSE,31061,"['confidence_interval1', 'confidence_interval2', 'confidence_interval3']","['64', '70', '75']"
"3OGQvgMnwdnpelDPA0ENep78qH","hFNfTU2w2ZOGuGn0Cg7ZTcUFr5",3805663,1145,FALSE,49949,"['trinary_A', 'trinary_B', 'trinary_C', 'trinary_AB', 'trinary_BC']","['3', '24', '100', '39', '100']"
"3OGQvgMnwdnpelDPA0ENep78qH","hFNfTU2w2ZOGuGn0Cg7ZTcUFr5",3831697,1146,FALSE,26022,"['binary_statepop1', 'binary_statearea1', 'binary_gdp1']","['92', '49', '48']"
"3OGQvgMnwdnpelDPA0ENep78qH","hFNfTU2w2ZOGuGn0Cg7ZTcUFr5",3848620,1147,FALSE,16908,"['binary_statepop2', 'binary_statearea2', 'binary_gdp2']","['2', '50', '45']"
"3OGQvgMnwdnpelDPA0ENep78qH","hFNfTU2w2ZOGuGn0Cg7ZTcUFr5",3878965,1148,FALSE,30337,"['time1', 'time2', 'time3']","['10', '10', '12']"
"3OGQvgMnwdnpelDPA0ENep78qH","hFNfTU2w2ZOGuGn0Cg7ZTcUFr5",3921805,1149,FALSE,42834,"['time4', 'time5', 'time6']","['40', '51', '58']"
"3OGQvgMnwdnpelDPA0ENep78qH","hFNfTU2w2ZOGuGn0Cg7ZTcUFr5",3966587,1150,FALSE,44773,"['space1', 'space2', 'space3']","['48', '94', '100']"
"3OGQvgMnwdnpelDPA0ENep78qH","hFNfTU2w2ZOGuGn0Cg7ZTcUFr5",3990223,1151,FALSE,23626,"['space4', 'space5', 'space6']","['20', '37', '78']"
"3OGQvgMnwdnpelDPA0ENep78qH","hFNfTU2w2ZOGuGn0Cg7ZTcUFr5",4016496,1152,FALSE,26265,"['confidence_interval1', 'confidence_interval2', 'confidence_interval3']","['100', '100', '70']"
"3p6IFCYbicUYdDQ4T7ee4eJiyc","yl3e8E0S62x4HsaF86YIzm1Jhy",219129,20,FALSE,24278,"['trinary_A', 'trinary_B', 'trinary_C', 'trinary_AB', 'trinary_BC']","['10', '40', '70', '0', '49']"
"3p6IFCYbicUYdDQ4T7ee4eJiyc","yl3e8E0S62x4HsaF86YIzm1Jhy",233109,21,FALSE,13973,"['binary_statepop1', 'binary_statearea1', 'binary_gdp1']","['90', '51', '80']"
"3p6IFCYbicUYdDQ4T7ee4eJiyc","yl3e8E0S62x4HsaF86YIzm1Jhy",243063,22,FALSE,9950,"['binary_statepop2', 'binary_statearea2', 'binary_gdp2']","['0', '50', '50']"
"3p6IFCYbicUYdDQ4T7ee4eJiyc","yl3e8E0S62x4HsaF86YIzm1Jhy",255540,23,FALSE,12467,"['time1', 'time2', 'time3']","['70', '50', '90']"
"3p6IFCYbicUYdDQ4T7ee4eJiyc","yl3e8E0S62x4HsaF86YIzm1Jhy",266540,24,FALSE,10993,"['time4', 'time5', 'time6']","['0', '10', '21']"
"3p6IFCYbicUYdDQ4T7ee4eJiyc","yl3e8E0S62x4HsaF86YIzm1Jhy",273962,25,FALSE,7414,"['space1', 'space2', 'space3']","['50', '61', '28']"
"3p6IFCYbicUYdDQ4T7ee4eJiyc","yl3e8E0S62x4HsaF86YIzm1Jhy",283653,26,FALSE,9685,"['space4', 'space5', 'space6']","['40', '50', '50']"
"3p6IFCYbicUYdDQ4T7ee4eJiyc","yl3e8E0S62x4HsaF86YIzm1Jhy",293224,27,FALSE,9565,"['confidence_interval1', 'confidence_interval2', 'confidence_interval3']","['60', '29', '50']"
"3pzalxp9KcZX7CGnBMdr6DmvlP","awu1rF7vI8v4FGyvpnVINcuWyb",7076094,1188,FALSE,41782,"['trinary_A', 'trinary_B', 'trinary_C', 'trinary_AB', 'trinary_BC']","['29', '29', '30', '61', '29']"
"3pzalxp9KcZX7CGnBMdr6DmvlP","awu1rF7vI8v4FGyvpnVINcuWyb",7095191,1189,FALSE,19074,"['binary_statepop1', 'binary_statearea1', 'binary_gdp1']","['90', '30', '60']"
"3pzalxp9KcZX7CGnBMdr6DmvlP","awu1rF7vI8v4FGyvpnVINcuWyb",7106240,1190,FALSE,11038,"['binary_statepop2', 'binary_statearea2', 'binary_gdp2']","['29', '79', '30']"
"3pzalxp9KcZX7CGnBMdr6DmvlP","awu1rF7vI8v4FGyvpnVINcuWyb",7120189,1191,FALSE,13939,"['time1', 'time2', 'time3']","['79', '79', '79']"
"3pzalxp9KcZX7CGnBMdr6DmvlP","awu1rF7vI8v4FGyvpnVINcuWyb",7129209,1192,FALSE,9014,"['time4', 'time5', 'time6']","['80', '80', '80']"
"3pzalxp9KcZX7CGnBMdr6DmvlP","awu1rF7vI8v4FGyvpnVINcuWyb",7145149,1193,FALSE,15937,"['space1', 'space2', 'space3']","['100', '99', '99']"
"3pzalxp9KcZX7CGnBMdr6DmvlP","awu1rF7vI8v4FGyvpnVINcuWyb",7160606,1194,FALSE,15452,"['space4', 'space5', 'space6']","['70', '70', '90']"
"3pzalxp9KcZX7CGnBMdr6DmvlP","awu1rF7vI8v4FGyvpnVINcuWyb",7178256,1195,FALSE,17643,"['confidence_interval1', 'confidence_interval2', 'confidence_interval3']","['60', '31', '30']"
"3rr1cStimAPqFnd8LcXKZVVO6f","XgmDPZFpc7TCkFDozAtML03CxW",601634,32,FALSE,64684,"['trinary_A', 'trinary_B', 'trinary_C', 'trinary_AB', 'trinary_BC']","['80', '90', '96', '4', '19']"
"3rr1cStimAPqFnd8LcXKZVVO6f","XgmDPZFpc7TCkFDozAtML03CxW",637497,33,FALSE,35859,"['binary_statepop1', 'binary_statearea1', 'binary_gdp1']","['59', '49', '60']"
"3rr1cStimAPqFnd8LcXKZVVO6f","XgmDPZFpc7TCkFDozAtML03CxW",660404,34,FALSE,22903,"['binary_statepop2', 'binary_statearea2', 'binary_gdp2']","['39', '40', '36']"
"3rr1cStimAPqFnd8LcXKZVVO6f","XgmDPZFpc7TCkFDozAtML03CxW",686362,35,FALSE,25955,"['time1', 'time2', 'time3']","['9', '9', '10']"
"3rr1cStimAPqFnd8LcXKZVVO6f","XgmDPZFpc7TCkFDozAtML03CxW",703342,36,FALSE,16977,"['time4', 'time5', 'time6']","['10', '10', '10']"
"3rr1cStimAPqFnd8LcXKZVVO6f","XgmDPZFpc7TCkFDozAtML03CxW",737237,37,FALSE,33891,"['space1', 'space2', 'space3']","['70', '80', '59']"
"3rr1cStimAPqFnd8LcXKZVVO6f","XgmDPZFpc7TCkFDozAtML03CxW",768131,38,FALSE,30891,"['space4', 'space5', 'space6']","['34', '24', '15']"
"3rr1cStimAPqFnd8LcXKZVVO6f","XgmDPZFpc7TCkFDozAtML03CxW",806204,39,FALSE,38070,"['confidence_interval1', 'confidence_interval2', 'confidence_interval3']","['60', '70', '79']"
"3StxTMifV67bsimI06lGXeTcKV","v00dissXbzc88HyqOOY2VpFqhb",6799400,1246,FALSE,51203,"['trinary_A', 'trinary_B', 'trinary_C', 'trinary_AB', 'trinary_BC']","['32', '69', '58', '16', '61']"
"3StxTMifV67bsimI06lGXeTcKV","v00dissXbzc88HyqOOY2VpFqhb",6820398,1247,FALSE,20993,"['binary_statepop1', 'binary_statearea1', 'binary_gdp1']","['49', '63', '38']"
"3StxTMifV67bsimI06lGXeTcKV","v00dissXbzc88HyqOOY2VpFqhb",6840624,1248,FALSE,20223,"['binary_statepop2', 'binary_statearea2', 'binary_gdp2']","['40', '44', '61']"
"3StxTMifV67bsimI06lGXeTcKV","v00dissXbzc88HyqOOY2VpFqhb",6860074,1249,FALSE,19447,"['time1', 'time2', 'time3']","['25', '36', '42']"
"3StxTMifV67bsimI06lGXeTcKV","v00dissXbzc88HyqOOY2VpFqhb",6870650,1250,FALSE,10574,"['time4', 'time5', 'time6']","['19', '34', '50']"
"3StxTMifV67bsimI06lGXeTcKV","v00dissXbzc88HyqOOY2VpFqhb",6884863,1251,FALSE,14210,"['space1', 'space2', 'space3']","['34', '51', '70']"
"3StxTMifV67bsimI06lGXeTcKV","v00dissXbzc88HyqOOY2VpFqhb",6895850,1252,FALSE,10986,"['space4', 'space5', 'space6']","['29', '39', '50']"
"3StxTMifV67bsimI06lGXeTcKV","v00dissXbzc88HyqOOY2VpFqhb",6920964,1253,FALSE,25111,"['confidence_interval1', 'confidence_interval2', 'confidence_interval3']","['50', '58', '77']"
"3V9uIE7do09SYtI6Z7NRfGGabM","T8xIbZhMgVIUn3DZjTzPX2NjFO",2438743,537,FALSE,63303,"['trinary_A', 'trinary_B', 'trinary_C', 'trinary_AB', 'trinary_BC']","['4', '20', '76', '19', '100']"
"3V9uIE7do09SYtI6Z7NRfGGabM","T8xIbZhMgVIUn3DZjTzPX2NjFO",2468498,538,FALSE,29750,"['binary_statepop1', 'binary_statearea1', 'binary_gdp1']","['79', '62', '75']"
"3V9uIE7do09SYtI6Z7NRfGGabM","T8xIbZhMgVIUn3DZjTzPX2NjFO",2496778,539,FALSE,28277,"['binary_statepop2', 'binary_statearea2', 'binary_gdp2']","['35', '44', '22']"
"3V9uIE7do09SYtI6Z7NRfGGabM","T8xIbZhMgVIUn3DZjTzPX2NjFO",2540952,540,FALSE,44168,"['time1', 'time2', 'time3']","['14', '25', '29']"
"3V9uIE7do09SYtI6Z7NRfGGabM","T8xIbZhMgVIUn3DZjTzPX2NjFO",2557074,541,FALSE,16117,"['time4', 'time5', 'time6']","['3', '5', '8']"
"3V9uIE7do09SYtI6Z7NRfGGabM","T8xIbZhMgVIUn3DZjTzPX2NjFO",2595909,542,FALSE,38829,"['space1', 'space2', 'space3']","['87', '96', '100']"
"3V9uIE7do09SYtI6Z7NRfGGabM","T8xIbZhMgVIUn3DZjTzPX2NjFO",2651441,543,FALSE,55526,"['space4', 'space5', 'space6']","['86', '85', '94']"
"3V9uIE7do09SYtI6Z7NRfGGabM","T8xIbZhMgVIUn3DZjTzPX2NjFO",2697291,544,FALSE,45844,"['confidence_interval1', 'confidence_interval2', 'confidence_interval3']","['100', '100', '100']"
"3z3XA3JViOlw6HQRLB7B3ySu5K","JvBzLh60kVqBOdjnqnIo2ESAxx",5746772,1221,TRUE,101000,"['trinary_A', 'trinary_B', 'trinary_C', 'trinary_AB', 'trinary_BC']","['25', '9', '74', '0', '100']"
"3z3XA3JViOlw6HQRLB7B3ySu5K","JvBzLh60kVqBOdjnqnIo2ESAxx",5780409,1222,FALSE,33632,"['binary_statepop1', 'binary_statearea1', 'binary_gdp1']","['75', '49', '49']"
"3z3XA3JViOlw6HQRLB7B3ySu5K","JvBzLh60kVqBOdjnqnIo2ESAxx",5825389,1223,FALSE,44974,"['binary_statepop2', 'binary_statearea2', 'binary_gdp2']","['19', '50', '19']"
"3z3XA3JViOlw6HQRLB7B3ySu5K","JvBzLh60kVqBOdjnqnIo2ESAxx",5881204,1224,FALSE,55810,"['time1', 'time2', 'time3']","['19', '20', '20']"
"3z3XA3JViOlw6HQRLB7B3ySu5K","JvBzLh60kVqBOdjnqnIo2ESAxx",5896081,1225,FALSE,14869,"['time4', 'time5', 'time6']","['10', '10', '9']"
"3z3XA3JViOlw6HQRLB7B3ySu5K","JvBzLh60kVqBOdjnqnIo2ESAxx",5931064,1226,FALSE,34976,"['space1', 'space2', 'space3']","['19', '20', '20']"
"3z3XA3JViOlw6HQRLB7B3ySu5K","JvBzLh60kVqBOdjnqnIo2ESAxx",5982625,1227,FALSE,51556,"['space4', 'space5', 'space6']","['20', '19', '19']"
"3z3XA3JViOlw6HQRLB7B3ySu5K","JvBzLh60kVqBOdjnqnIo2ESAxx",6027569,1228,FALSE,44938,"['confidence_interval1', 'confidence_interval2', 'confidence_interval3']","['20', '29', '40']"
"42ajvjIRMPNBOwSqlRBHfNrnUP","F7nEWmVc7w7AlCLYPHLYlhwbIw",865366,63,FALSE,56697,"['trinary_A', 'trinary_B', 'trinary_C', 'trinary_AB', 'trinary_BC']","['10', '20', '91', '20', '96']"
"42ajvjIRMPNBOwSqlRBHfNrnUP","F7nEWmVc7w7AlCLYPHLYlhwbIw",894470,64,FALSE,29100,"['binary_statepop1', 'binary_statearea1', 'binary_gdp1']","['60', '39', '79']"
"42ajvjIRMPNBOwSqlRBHfNrnUP","F7nEWmVc7w7AlCLYPHLYlhwbIw",925664,65,FALSE,31191,"['binary_statepop2', 'binary_statearea2', 'binary_gdp2']","['40', '29', '19']"
"42ajvjIRMPNBOwSqlRBHfNrnUP","F7nEWmVc7w7AlCLYPHLYlhwbIw",944182,66,FALSE,18515,"['time1', 'time2', 'time3']","['58', '70', '80']"
"42ajvjIRMPNBOwSqlRBHfNrnUP","F7nEWmVc7w7AlCLYPHLYlhwbIw",955205,67,FALSE,11021,"['time4', 'time5', 'time6']","['90', '93', '99']"
"42ajvjIRMPNBOwSqlRBHfNrnUP","F7nEWmVc7w7AlCLYPHLYlhwbIw",974660,68,FALSE,19452,"['space1', 'space2', 'space3']","['70', '95', '100']"
"42ajvjIRMPNBOwSqlRBHfNrnUP","F7nEWmVc7w7AlCLYPHLYlhwbIw",991552,69,FALSE,16888,"['space4', 'space5', 'space6']","['60', '89', '100']"
"42ajvjIRMPNBOwSqlRBHfNrnUP","F7nEWmVc7w7AlCLYPHLYlhwbIw",1015898,70,FALSE,24342,"['confidence_interval1', 'confidence_interval2', 'confidence_interval3']","['49', '60', '71']"
"46j5CHteYEut0nqwQKTAasWUI2","ZzwLnHOW0xTpzyjq25QCe5PjMw",3488932,1248,FALSE,17260,"['trinary_A', 'trinary_B', 'trinary_C', 'trinary_AB', 'trinary_BC']","['0', '0', '100', '0', '100']"
"46j5CHteYEut0nqwQKTAasWUI2","ZzwLnHOW0xTpzyjq25QCe5PjMw",3501592,1249,FALSE,12651,"['binary_statepop1', 'binary_statearea1', 'binary_gdp1']","['40', '89', '94']"
"46j5CHteYEut0nqwQKTAasWUI2","ZzwLnHOW0xTpzyjq25QCe5PjMw",3509400,1250,FALSE,7802,"['binary_statepop2', 'binary_statearea2', 'binary_gdp2']","['69', '30', '9']"
"46j5CHteYEut0nqwQKTAasWUI2","ZzwLnHOW0xTpzyjq25QCe5PjMw",3518666,1251,FALSE,9263,"['time1', 'time2', 'time3']","['30', '30', '30']"
"46j5CHteYEut0nqwQKTAasWUI2","ZzwLnHOW0xTpzyjq25QCe5PjMw",3527433,1252,FALSE,8758,"['time4', 'time5', 'time6']","['55', '64', '75']"
"46j5CHteYEut0nqwQKTAasWUI2","ZzwLnHOW0xTpzyjq25QCe5PjMw",3536413,1253,FALSE,8977,"['space1', 'space2', 'space3']","['79', '90', '100']"
"46j5CHteYEut0nqwQKTAasWUI2","ZzwLnHOW0xTpzyjq25QCe5PjMw",3545006,1254,FALSE,8584,"['space4', 'space5', 'space6']","['50', '59', '70']"
"46j5CHteYEut0nqwQKTAasWUI2","ZzwLnHOW0xTpzyjq25QCe5PjMw",3559747,1255,FALSE,14738,"['confidence_interval1', 'confidence_interval2', 'confidence_interval3']","['70', '79', '100']"
"47VX9XocCOvQneVreGOHXxevSX","NeD9XHWw3geXuEXc9rNq1IQlrD",3102640,864,FALSE,37247,"['trinary_A', 'trinary_B', 'trinary_C', 'trinary_AB', 'trinary_BC']","['79', '91', '93', '52', '96']"
"47VX9XocCOvQneVreGOHXxevSX","NeD9XHWw3geXuEXc9rNq1IQlrD",3117462,865,FALSE,14820,"['binary_statepop1', 'binary_statearea1', 'binary_gdp1']","['99', '98', '96']"
"47VX9XocCOvQneVreGOHXxevSX","NeD9XHWw3geXuEXc9rNq1IQlrD",3133365,866,FALSE,15901,"['binary_statepop2', 'binary_statearea2', 'binary_gdp2']","['100', '97', '96']"
"47VX9XocCOvQneVreGOHXxevSX","NeD9XHWw3geXuEXc9rNq1IQlrD",3151502,867,FALSE,18135,"['time1', 'time2', 'time3']","['51', '68', '71']"
"47VX9XocCOvQneVreGOHXxevSX","NeD9XHWw3geXuEXc9rNq1IQlrD",3163751,868,FALSE,12247,"['time4', 'time5', 'time6']","['58', '68', '76']"
"47VX9XocCOvQneVreGOHXxevSX","NeD9XHWw3geXuEXc9rNq1IQlrD",3177658,869,FALSE,13905,"['space1', 'space2', 'space3']","['78', '85', '93']"
"47VX9XocCOvQneVreGOHXxevSX","NeD9XHWw3geXuEXc9rNq1IQlrD",3191359,870,FALSE,13699,"['space4', 'space5', 'space6']","['80', '92', '91']"
"47VX9XocCOvQneVreGOHXxevSX","NeD9XHWw3geXuEXc9rNq1IQlrD",3205982,871,FALSE,14621,"['confidence_interval1', 'confidence_interval2', 'confidence_interval3']","['69', '66', '60']"
"48eCkfTae11g52AiMMOxllaekp","UlkMz1S4MgGQipKwwyKLCi7cBF",1392899,613,FALSE,49662,"['trinary_A', 'trinary_B', 'trinary_C', 'trinary_AB', 'trinary_BC']","['100', '100', '100', '100', '100']"
"48eCkfTae11g52AiMMOxllaekp","UlkMz1S4MgGQipKwwyKLCi7cBF",1410885,614,FALSE,17970,"['binary_statepop1', 'binary_statearea1', 'binary_gdp1']","['79', '30', '75']"
"48eCkfTae11g52AiMMOxllaekp","UlkMz1S4MgGQipKwwyKLCi7cBF",1434482,615,FALSE,23589,"['binary_statepop2', 'binary_statearea2', 'binary_gdp2']","['20', '70', '24']"
"48eCkfTae11g52AiMMOxllaekp","UlkMz1S4MgGQipKwwyKLCi7cBF",1453934,616,FALSE,19445,"['time1', 'time2', 'time3']","['4', '4', '10']"
"48eCkfTae11g52AiMMOxllaekp","UlkMz1S4MgGQipKwwyKLCi7cBF",1472232,617,FALSE,18291,"['time4', 'time5', 'time6']","['60', '70', '75']"
