"session_id","time_elapsed","trial_index","custom_timer_ended_trial","rt","shipley_vocab_1","shipley_vocab_2","shipley_vocab_3","shipley_vocab_4","shipley_vocab_5","shipley_vocab_6","shipley_vocab_7","shipley_vocab_8","shipley_vocab_9","shipley_vocab_10","shipley_vocab_11","shipley_vocab_12","shipley_vocab_13","shipley_vocab_14","shipley_vocab_15","shipley_vocab_16","shipley_vocab_17","shipley_vocab_18","shipley_vocab_19","shipley_vocab_20","shipley_vocab_21","shipley_vocab_22","shipley_vocab_23","shipley_vocab_24","shipley_vocab_25","shipley_vocab_26","shipley_vocab_27","shipley_vocab_28","shipley_vocab_29","shipley_vocab_30","shipley_vocab_31","shipley_vocab_32","shipley_vocab_33","shipley_vocab_34","shipley_vocab_35","shipley_vocab_36","shipley_vocab_37","shipley_vocab_38","shipley_vocab_39","shipley_vocab_40","shipley_vocab_total"
"016SsHMbVS1ns2Qxcmk4hHRgSH",2957954,197,FALSE,470756,1,1,1,1,1,1,1,1,1,1,1,1,1,1,1,0,1,1,1,1,1,1,1,1,1,1,1,1,1,1,1,1,1,1,1,1,0,1,1,1,38
"02QWkclNXRGICktZzGbALKgOXn",3469977,1115,FALSE,150638,1,1,1,1,1,1,1,1,1,1,1,1,1,1,1,0,1,1,1,1,1,1,1,1,1,0,1,1,1,1,0,0,1,0,1,0,1,0,0,1,32
"08JvGfUwcNXzbgM6Uw9OTeVzMT",289266,13,FALSE,249714,1,1,1,1,1,1,1,1,1,1,1,1,1,1,1,0,1,1,1,1,1,1,1,1,1,1,1,1,1,1,1,1,1,1,1,1,1,1,1,1,39
"09Sw3t0YLj302lra5gkQlLEMwE",3364847,259,FALSE,181382,1,1,1,1,1,1,1,1,1,1,1,1,1,1,1,0,1,1,1,1,1,1,1,1,0,1,1,0,1,0,0,1,1,1,0,1,0,0,0,1,31
"0bjDzRkHTDdAUc8E3JPJxkyVYK",4204695,1241,FALSE,181299,1,1,1,1,1,1,1,1,1,1,1,1,1,1,1,0,1,1,1,1,1,1,1,1,1,1,1,1,1,1,1,1,0,1,0,1,1,1,1,1,37
"0d3KNfQfPK5yzhZRUP0U1M47yp",3163752,1100,FALSE,177909,1,1,1,1,1,1,1,1,1,1,1,1,1,1,1,0,1,1,1,1,1,1,1,1,1,1,1,1,1,0,1,1,1,1,0,0,0,0,0,0,32
"0DbPC3sk9u2UC1A1OXELSFZqk4",157056,13,FALSE,131477,1,1,1,1,1,1,1,1,1,1,1,1,1,1,1,0,1,1,1,1,1,1,1,1,1,1,1,1,1,1,1,1,0,1,1,1,1,0,0,1,36
"0f9yzMMlcjFihBIVm43sUQOq5N",161370,13,FALSE,122451,1,1,1,1,1,1,1,1,1,1,1,1,1,1,1,0,1,1,1,1,1,1,1,1,1,1,1,1,1,1,0,1,1,1,1,1,0,1,0,1,36
"0G6inFq7heMyKnrLpeL72Oc0x2",3739719,211,FALSE,390384,1,1,1,1,1,1,1,1,1,1,1,1,1,1,1,0,1,1,1,1,1,1,1,1,1,1,1,1,1,1,1,1,1,0,0,0,1,0,1,0,34
"0iWhbvxyvGhSXx6Vwq7cOzsX5P",21568663,291,FALSE,175590,1,1,1,1,1,1,1,1,1,1,1,1,1,1,1,0,1,1,1,1,1,1,1,1,1,1,1,1,1,1,1,1,1,1,1,1,0,1,1,1,38
"0jtfnPUyl2KfOkrH6EawIfcZrU",1957481,808,FALSE,120876,1,1,1,1,1,1,1,1,1,1,1,1,1,1,1,0,1,1,1,1,1,1,1,0,0,0,1,1,1,0,0,0,0,0,1,0,0,0,0,0,26
"0lONQy80IYyb7sgqnX55uzWGpk",1941211,214,FALSE,153079,1,1,1,1,1,1,1,1,1,1,1,1,1,1,1,0,1,1,1,1,1,1,1,1,1,1,0,1,1,1,0,1,1,0,1,0,0,1,0,0,32
"0MRkDC9OIj6neflPX1YCGTovn9",949536,13,FALSE,195153,1,1,1,1,1,1,1,1,1,1,1,1,1,1,1,0,1,1,1,0,1,1,1,1,1,1,1,1,1,1,1,0,1,1,1,0,0,0,0,0,32
"0muiSaKLm83R3IxO8bShtR5IvR",4740201,1239,FALSE,236572,1,1,1,1,1,1,1,1,1,1,1,1,0,1,1,0,1,1,1,1,1,1,1,1,1,1,0,1,1,0,0,0,0,0,0,1,0,0,0,0,27
"0nvFj8VxK1Hq2p7OWf9G7eoPjS",8413556,1228,FALSE,600166,1,1,1,1,1,1,1,1,1,1,1,1,1,1,1,0,1,1,1,1,1,1,1,1,1,1,1,1,1,1,1,1,1,1,1,1,1,1,1,1,39
"0o9HmsRAeWW6hOa4qWA3aiYgGk",71717265,1032,FALSE,171314,1,1,1,1,1,1,1,1,1,1,1,1,1,1,1,0,1,1,1,1,1,1,1,1,1,1,1,1,1,1,1,1,0,1,1,1,1,1,1,1,38
"0oOc4trw2RuVUTJzHPoOiPutvD",797596,367,FALSE,199830,1,1,1,1,1,1,1,1,1,1,1,1,1,1,1,0,0,1,1,1,1,1,1,1,1,1,1,1,1,0,0,0,0,0,0,1,1,0,0,0,29
"0PGSj6vBGEWDIv52s0FmG8v3dC",4883050,1255,FALSE,141082,1,1,1,1,1,1,1,1,1,1,1,1,1,1,1,0,1,1,1,1,1,1,1,1,1,1,1,1,1,0,0,1,0,1,1,0,0,0,0,1,32
"0qhwNPBkRLnN5VgpoCWSHQbZNZ",578020,79,FALSE,173197,1,1,1,1,1,1,1,1,1,1,1,1,1,1,1,0,1,1,1,1,1,1,1,1,1,1,1,1,1,1,1,1,1,1,1,0,1,0,0,1,36
"0wxHPgNbpBWYb8kVt0LHMMWnKG",1481783,700,FALSE,137834,1,1,1,1,1,1,1,1,1,1,1,1,1,1,1,0,1,1,1,1,1,1,1,1,1,1,1,1,1,1,1,1,1,1,1,1,1,0,1,1,38
"0ZtepTI67Bd7sjifgxAlqs79Ne",4586574,43,FALSE,131800,1,1,1,1,1,1,1,1,1,1,1,0,1,1,1,0,1,1,1,1,1,1,1,1,1,1,1,1,1,1,1,1,1,1,1,1,0,0,0,1,35
"1aCQXzMxvKGN7rhH120pTns7ly",150303,13,FALSE,133262,1,1,1,1,1,1,1,1,1,1,1,1,1,1,1,0,1,1,1,1,1,1,1,1,1,1,1,1,1,1,0,1,1,0,1,0,0,0,1,0,33
"1ALaeVQQ86lCBbzEY0ygIqiVPO",1956712,598,FALSE,206543,1,1,1,1,1,1,1,1,1,1,1,1,1,1,1,0,1,1,1,1,1,1,1,1,1,1,1,1,1,1,1,1,1,1,1,1,1,1,1,1,39
"1brBjF9gjcWQS6VPzrzn9fg0Zt",16160530,1261,FALSE,166006,1,1,1,1,1,1,1,1,1,1,1,1,1,1,1,0,1,1,1,1,1,1,1,0,1,1,1,1,0,0,0,1,0,0,1,0,0,0,0,0,28
"1ceGfBKQFjbWwypDqcxWsFk6uK",207346,13,FALSE,151776,1,1,1,1,1,1,1,1,1,1,1,1,1,1,1,0,1,1,1,1,1,1,1,1,1,1,1,1,1,1,1,1,1,1,1,1,1,1,0,1,38
"1GOJzZnrmuKpj5ARHg3lnbX8VY",3000539,1194,FALSE,191508,1,1,1,1,1,1,0,1,1,1,1,1,1,1,1,0,1,1,1,1,1,1,1,1,1,1,1,1,1,1,0,1,1,1,1,1,0,0,1,0,34
"1HOK6QspxGl8qgK7ewjz5BK80U",417438879,232,FALSE,112350,1,1,1,1,1,1,1,1,1,1,1,1,1,1,1,0,1,1,1,1,1,1,1,1,1,1,1,1,1,0,0,1,1,1,1,1,0,0,0,0,33
"1hz9aEcPKuUVxzeWXU0DKHJOTo",877070,92,FALSE,266681,1,1,1,1,1,1,1,1,1,1,1,1,1,1,1,0,1,1,1,1,1,1,1,1,0,1,1,1,1,0,0,1,1,0,0,0,0,0,1,0,30
"1JdcraYIvlFTeFgt9LeNqWf2GH",4549820,1220,FALSE,174490,1,1,1,1,1,1,1,1,1,1,1,1,1,1,1,0,1,1,1,1,1,1,1,1,1,1,1,1,1,0,1,1,1,0,1,0,1,0,0,0,33
"1Mj9fbNoVRFtG3zHNlw3cAngFs",1393131,33,FALSE,261284,1,1,1,1,1,1,1,1,1,1,1,1,1,1,1,0,1,1,1,1,1,1,1,1,1,1,1,1,1,1,1,1,1,1,1,1,1,1,1,1,39
"1OzveigfU1iFItrM6WmJ1HkUNY",4863632,1256,FALSE,122201,1,1,1,1,1,1,1,1,1,1,1,1,1,1,1,0,1,1,1,1,1,1,1,1,1,1,1,1,1,1,0,1,1,1,1,0,0,1,0,0,34
"1TuvpkmKs8aFElCAUlBddz9xEb",2376199,577,FALSE,349081,1,1,1,1,1,1,1,1,1,1,1,1,1,1,1,0,1,1,1,1,1,1,1,1,1,1,1,1,1,1,1,1,1,0,0,1,0,0,0,0,33
"1uZPCXhrAQUz9u3bnwbSu2f9OW",4226693,1242,FALSE,135001,1,1,1,1,1,1,1,1,1,1,1,1,1,1,1,0,1,1,1,1,1,1,1,1,1,1,1,1,1,1,1,1,1,1,1,0,1,0,0,0,35
"1yyTDdpAKpAAydh7Rncn6Zvxhs",1527327,422,FALSE,231669,1,1,1,1,1,1,1,1,1,1,1,1,1,1,1,0,1,1,1,1,1,1,1,0,1,1,1,1,1,1,1,1,1,1,1,0,0,1,1,1,36
"1ZFtLAHgL9wLhdzIYquWED4PQ8",652362,79,FALSE,168984,1,1,1,1,1,1,1,1,1,1,1,1,1,1,1,0,1,1,1,1,1,1,1,1,1,1,1,1,1,1,1,1,0,1,1,0,0,0,0,0,33
"25bD8vGu2cCVsPkfhZmCy6xK4t",2390069,180,FALSE,575049,1,1,1,1,1,1,1,1,1,1,1,1,1,1,1,0,1,1,1,1,1,1,1,0,0,1,0,1,1,1,1,1,1,1,1,1,1,1,1,1,36
"26KL9Q0Jbtt6iGSpAKazbt3JhO",2882295,1077,FALSE,131086,1,1,1,1,1,1,1,1,1,1,1,1,1,1,1,0,1,1,1,1,1,1,1,1,1,1,1,1,1,1,1,1,0,1,1,1,0,0,1,0,35
"27YwGn0TiDrlXCLxWsUMAcIt45",3107563,1259,FALSE,108652,1,1,1,1,1,1,1,1,1,1,1,1,1,1,1,0,1,1,1,1,1,1,1,1,1,1,1,1,1,1,1,1,1,1,1,1,1,0,0,1,37
"2AA93UwCDg76IqO8nWIGe29q3f",1866364,416,FALSE,205976,1,1,1,1,1,1,1,1,1,1,1,1,1,1,1,0,1,1,1,1,1,1,1,1,1,1,1,1,1,1,1,1,0,1,1,1,1,0,1,1,37
"2B8aRYS8XLGxLWy0alFAxZOteH",19383549,896,FALSE,188345,1,1,1,1,1,1,1,1,1,1,1,1,1,1,1,0,1,1,1,1,1,1,1,1,1,1,1,1,1,1,1,1,1,1,1,1,1,1,1,1,39
"2c4yipde1kQFIRgdbcH0lZrkDB",1664860,40,FALSE,170790,1,1,1,1,1,1,1,1,1,1,1,1,1,1,1,0,1,1,1,1,1,1,1,1,1,1,1,1,1,1,0,1,1,0,1,0,1,1,0,0,34
"2d8DQPFYsBDFeDwNnYbm1WMThN",1963029,176,FALSE,232837,1,1,1,1,1,1,1,1,1,1,1,1,1,1,1,0,1,1,1,1,1,1,1,1,1,1,1,1,1,1,1,1,1,1,1,0,1,1,1,1,38
"2EgIpyLmeCAoeePQ81fpFLNhi9",1890617,172,FALSE,109390,1,1,1,1,1,1,1,1,1,1,1,1,1,1,1,0,1,1,1,1,1,1,1,1,1,1,1,1,1,1,1,1,1,1,1,0,1,0,0,1,36
"2HTOse3Z1zDR7tTs6hmh4LJDZU",4486924,1146,FALSE,284318,1,1,1,1,1,1,1,1,1,1,1,1,1,1,1,0,1,1,1,1,1,1,1,1,1,1,1,1,1,1,1,1,1,1,1,1,1,1,1,1,39
"2i7132kcPcxEmc2hecMr2CbwsY",4415874,276,FALSE,304160,1,1,1,1,1,1,1,1,1,1,1,1,1,1,1,0,1,1,1,1,1,1,1,1,1,1,1,1,1,1,1,1,1,1,1,0,1,0,0,1,36
"2IAPahTER2q65V8labGmLd9VyB",2257618,1066,FALSE,147164,1,1,1,1,1,1,1,1,1,1,1,1,1,1,1,0,1,1,1,1,1,1,1,1,1,1,1,1,1,1,1,1,1,1,1,1,0,1,0,1,37
"2Ibpve15BFt7T07Lh0Cs6sMquO",218324,13,FALSE,201548,1,1,1,1,1,1,1,1,1,1,1,1,1,1,1,0,1,1,1,1,1,1,1,1,1,1,1,1,1,1,1,1,1,1,1,0,1,0,1,1,37
"2kFcDYk61xgzZHmkFH8bb2RKup",218540,13,FALSE,208052,1,1,1,1,1,1,1,1,1,1,1,1,1,1,1,0,1,1,1,1,1,1,1,1,1,1,1,1,1,0,1,1,1,0,1,1,0,0,1,1,35
"2KRWlhry8hXugjECoOimhKHyu5",1416891,525,FALSE,189383,1,1,1,1,1,1,1,1,1,1,1,1,1,1,1,0,1,1,1,1,1,0,1,1,1,1,1,1,1,1,0,1,0,1,1,0,1,0,0,1,33
"2NCG8KpHpVcw40nODxbJ3TWyM0",1352601,1029,FALSE,145262,1,1,1,1,1,1,1,1,1,1,1,1,1,1,1,0,1,1,1,1,1,1,1,1,1,1,1,1,1,0,1,0,1,0,1,0,0,1,1,0,33
"2oVIiZjinndSKhVOAfMCb8PUJv",3489410,1158,FALSE,274605,1,1,1,1,1,1,1,1,1,1,1,1,1,1,1,0,1,1,1,1,1,1,1,1,1,1,1,1,1,0,1,1,1,1,1,1,1,1,1,1,38
"2p2RkuvbMlDmcQO7ALZNcy7BVB",7000579,1257,FALSE,207720,1,1,1,1,1,1,1,1,1,1,1,1,1,1,1,0,1,1,1,1,1,1,1,1,1,1,1,1,1,0,1,1,1,0,0,1,0,0,1,0,33
"2pImB3BA3YLxVN9QOEhOPSR55b",1671717,61,FALSE,234393,1,1,1,1,1,1,1,1,1,1,1,1,1,1,1,0,1,1,1,1,1,1,1,1,1,1,1,1,1,1,1,1,1,1,1,1,1,1,1,1,39
"2RtPMbFJ5EI1NUfXYKVCpd70Tv",4978379,1255,FALSE,228751,1,1,1,1,1,1,1,1,1,1,1,1,1,1,1,0,1,1,1,1,1,1,1,1,1,1,1,1,1,1,1,1,0,1,1,1,1,1,1,1,38
"2s7L6hjw0aVfIiOHqEf92R92CI",37516546,630,FALSE,195238,1,1,1,1,1,1,1,1,1,1,1,1,1,1,1,0,1,1,1,1,1,1,1,1,1,1,1,1,1,1,0,1,1,1,1,0,0,0,1,1,35
"2tMJcwUb0jCy9PamYQNgCCBCdA",676823,592,FALSE,110176,1,1,1,1,1,1,1,1,1,1,1,1,1,1,1,0,1,1,1,1,1,1,1,1,1,1,1,1,1,1,1,1,1,1,1,1,0,1,1,0,37
"2UxadonClxNGbWsfVWxyUFWlXD",1193007,957,FALSE,135149,1,1,1,1,1,1,1,1,1,1,1,1,1,1,1,0,0,1,1,1,1,1,1,1,0,0,1,0,1,1,0,0,0,0,0,0,0,1,0,0,26
"2v7UmJHwr1oTn6hdKFwkrsAxE8",1575876,230,FALSE,160142,1,1,1,1,1,1,1,1,1,1,1,1,1,1,1,0,1,1,1,1,1,1,1,1,1,1,1,1,0,1,1,1,1,1,1,0,1,0,0,1,35
"2wH3MZsxiO7fVJUpn4o7wiiqMP",982373,42,FALSE,484401,1,1,1,1,1,1,1,1,1,1,1,1,1,1,1,0,1,1,1,1,1,1,1,1,1,1,0,1,1,1,1,1,0,1,1,1,1,1,1,1,37
"2X64KhtgQiPec1qIy7DrVmmYiZ",4904466,1132,FALSE,152833,1,1,1,1,1,1,1,1,1,1,1,1,1,1,1,0,1,1,1,1,1,1,1,1,1,1,1,1,1,1,0,1,1,1,0,0,0,0,0,0,32
"2zZ4xnXCGxtAkFktuCMrgE3cYR",978109,110,FALSE,241247,1,1,1,1,1,1,1,1,1,1,1,1,1,1,1,0,1,1,1,1,1,1,1,1,1,1,1,1,1,1,1,1,1,1,1,1,1,1,1,1,39
"31Bnid4HBnnPxo4LhagKetLugi",1389333,378,FALSE,147414,1,1,1,1,1,1,1,1,1,1,1,1,1,1,1,0,1,1,1,1,1,1,1,1,1,0,1,1,1,1,1,1,1,1,1,0,1,1,1,1,37
"34XyeAHTvluzgZMDEBfnsjLcFO",1657227,475,FALSE,183010,1,1,1,1,1,1,1,1,1,1,1,1,1,1,1,0,1,1,1,1,1,1,1,1,1,1,1,1,1,1,1,1,1,1,1,1,1,1,1,1,39
"3bgOaJAJh5EkiEQMcsw5BHgiTH",6057032,1242,FALSE,452699,1,1,1,1,1,1,1,1,1,1,1,1,1,1,1,0,1,1,1,1,1,1,1,1,1,1,1,1,1,1,1,1,1,1,1,0,1,1,0,1,37
"3cfwf1AC3xWQunoJYhcfQwZqFH",931876,42,FALSE,137753,1,1,1,1,1,1,1,1,1,1,1,1,1,1,1,0,1,1,1,1,1,1,1,1,1,1,1,1,1,1,1,1,1,1,1,1,0,1,1,1,38
"3Dd19KRBYgJfCukymF2AKtuBXi",2368691,486,FALSE,216868,1,1,1,1,1,1,1,1,1,1,1,0,1,1,0,0,0,1,1,1,1,0,1,1,0,0,1,0,0,0,0,0,0,1,1,0,0,0,1,0,23
"3DkYm4TofR4RvQQmb7OLo9CNbF",311314,18,FALSE,286370,1,1,1,1,1,1,1,1,1,1,1,1,1,1,1,0,1,1,1,1,1,1,1,1,1,1,1,1,1,1,1,1,1,1,1,1,1,1,1,1,39
"3e1AHUBhyTi6cvBHTNGVFxR0Wf",2214735,627,FALSE,211604,1,1,1,1,1,1,1,1,1,1,1,1,1,1,1,0,1,1,1,1,1,1,1,1,1,1,1,1,1,1,1,1,1,1,1,1,1,1,1,1,39
"3fy3gRAl3eiE2HMI7PmdDZy8CG",3335713,870,FALSE,167198,1,1,1,1,1,1,1,1,1,1,1,1,1,1,1,0,1,1,1,1,1,1,1,1,1,1,1,1,1,1,1,0,1,1,0,0,1,0,1,0,34
"3juz0LEONWYnmNZOFxavjkW1ht",34587698,1223,FALSE,477581,1,1,1,1,1,1,1,1,1,1,1,1,1,1,1,0,1,1,1,1,1,1,1,1,1,1,1,1,1,1,1,1,1,1,1,1,1,1,1,1,39
"3kJJzZtol0RQo4ede16dZrzoS3",2282133,677,FALSE,167760,1,1,1,1,1,1,1,1,1,1,1,1,1,1,1,0,1,1,1,1,1,1,1,1,1,1,1,1,1,1,0,1,1,0,1,1,1,0,0,0,34
"3OGQvgMnwdnpelDPA0ENep78qH",3740989,1137,FALSE,154662,1,1,1,1,1,1,1,1,1,1,1,1,1,1,1,0,1,1,1,1,1,1,1,1,1,1,1,1,1,1,1,1,1,1,1,0,1,0,0,0,35
"3p6IFCYbicUYdDQ4T7ee4eJiyc",176152,13,FALSE,148606,1,1,1,1,1,1,1,1,1,1,1,1,1,1,1,0,1,1,1,1,1,1,1,1,0,1,1,1,1,0,0,1,1,0,1,1,0,0,0,0,31
"3pzalxp9KcZX7CGnBMdr6DmvlP",140868,13,FALSE,124424,1,1,1,1,1,1,1,1,1,1,1,1,1,1,1,0,1,1,1,1,1,1,1,1,1,1,1,1,1,1,1,1,0,1,1,0,1,0,0,1,35
"3rr1cStimAPqFnd8LcXKZVVO6f",1003695,47,FALSE,185568,1,1,1,1,1,1,1,1,1,1,1,1,1,1,1,0,1,1,1,1,1,1,1,1,1,1,1,1,1,1,1,1,0,1,1,1,1,0,0,1,36
"3StxTMifV67bsimI06lGXeTcKV",7099415,1262,FALSE,168386,1,1,1,1,1,1,1,1,1,1,1,1,1,1,1,0,1,1,0,1,1,1,0,0,1,1,0,1,1,0,0,0,0,0,1,1,0,1,1,0,28
"3V9uIE7do09SYtI6Z7NRfGGabM",4792122,648,FALSE,180666,1,1,1,1,1,1,1,1,1,1,1,1,1,1,1,0,1,1,1,1,1,1,1,1,1,1,1,1,1,1,1,1,1,1,1,1,0,1,1,1,38
"3z3XA3JViOlw6HQRLB7B3ySu5K",644842,13,FALSE,520749,1,1,1,1,1,1,1,1,1,1,1,1,1,1,1,0,0,1,1,1,1,1,1,1,0,1,1,1,1,1,0,0,0,0,0,0,0,0,0,0,27
"42ajvjIRMPNBOwSqlRBHfNrnUP",364654,27,FALSE,167990,1,1,1,1,1,1,1,1,1,1,1,1,1,1,1,0,1,1,1,1,1,1,1,1,1,1,1,1,1,1,1,1,0,1,1,1,1,0,0,0,35
"46j5CHteYEut0nqwQKTAasWUI2",1187950,947,FALSE,231856,1,1,1,1,1,1,1,1,1,1,1,1,1,1,1,0,1,1,1,1,1,1,1,1,1,1,1,1,1,1,1,1,0,0,0,1,0,1,1,1,35
"47VX9XocCOvQneVreGOHXxevSX",3699435,1234,FALSE,162022,1,1,1,1,1,1,1,1,1,1,1,1,1,1,1,0,1,1,1,1,1,1,1,1,1,1,1,1,1,1,0,1,0,1,1,1,1,0,0,0,34
"48eCkfTae11g52AiMMOxllaekp",3008017,1114,FALSE,149659,1,1,1,1,1,1,1,1,1,1,1,1,1,1,1,0,1,1,1,1,1,0,0,1,0,1,1,1,1,0,0,1,1,1,0,0,1,1,1,0,31
"48uz5zLcv58z7fngAkZ1khlTAv",73147634,1255,FALSE,120544,1,1,1,1,1,1,1,1,1,1,1,1,1,1,1,0,1,1,1,1,1,1,1,1,1,1,1,1,1,1,0,1,0,1,1,0,1,0,1,0,34
"4a7lego3l51wEevuleR6ENKpuS",953637,596,FALSE,249443,1,1,1,1,1,1,1,1,1,1,1,1,1,1,1,0,1,1,1,1,1,1,1,1,1,1,1,1,1,1,1,1,1,1,1,1,1,1,1,1,39
"4AOgJHkNKGiyIvn5eB8QMyH2nO",3895490,881,FALSE,239880,1,1,1,1,1,1,1,1,1,1,1,1,1,1,1,0,1,1,1,1,1,1,1,1,1,1,1,1,1,1,1,1,1,1,1,0,0,0,1,0,35
"4DMTFy14TramBn7JJgqGSbrbFX",4008639,1258,FALSE,111397,1,1,1,1,1,1,1,1,1,1,1,1,1,1,1,0,1,1,1,1,1,1,1,1,1,1,1,1,1,1,0,1,0,0,1,0,1,0,0,0,32
"4KEjr1UWTKcSuQVedm6VlSNNKf",1175952,21,FALSE,349887,1,1,1,1,1,1,1,1,1,1,1,1,1,1,1,0,1,1,1,1,1,1,1,1,1,1,1,1,1,1,1,1,1,1,1,1,1,1,1,1,39
"4kwTFFW7issbpFjUErUhUVadMj",2639117,253,FALSE,191011,1,1,1,1,1,1,1,1,1,1,1,1,1,1,1,0,1,1,1,1,1,1,1,1,1,1,1,1,1,1,1,1,1,1,1,1,1,0,0,1,37
"4nOa9XoKpT43KuXOoyEwpvMqoB",582207,27,FALSE,326954,1,1,1,1,1,1,1,1,1,1,1,1,1,1,1,0,1,1,1,1,1,1,1,1,0,0,1,1,1,1,1,1,0,0,0,1,0,0,0,1,31
"4Sq3cYbABKQHHBm70mCFc3iMF5",3777423,828,FALSE,162052,1,1,1,1,1,1,1,1,1,1,1,1,1,1,1,0,1,1,1,1,1,1,1,1,1,1,0,1,1,0,0,1,1,0,0,0,0,0,0,0,29
"4ttQWLCj7crHQPx22YkLaLYnZa",1143310,23,FALSE,186341,1,1,1,1,1,1,1,1,1,1,1,1,1,1,1,0,1,1,1,1,1,1,1,1,1,1,1,1,1,1,1,1,0,1,0,0,0,0,0,0,32
"4v1ItFGeUNXhIXMPOahut43c3D",2103087,986,FALSE,94768,1,1,1,1,1,1,1,1,0,1,1,1,1,1,1,0,1,1,1,1,1,1,1,1,1,1,1,1,1,1,1,1,1,0,1,1,0,0,0,1,34
"4v2vBsgIWHAZrBBbaXCNuD9XNG",3500828,465,FALSE,197411,1,1,1,1,1,1,1,1,1,1,1,1,1,1,1,0,1,1,1,1,1,1,1,1,1,1,1,1,1,1,1,1,1,1,1,1,0,1,0,0,36
"4vs9WQi5qqqEOArRXQ5Zax1ExG",177856834,793,FALSE,131102,1,1,1,1,1,1,1,1,1,1,1,1,1,1,1,0,1,1,1,1,1,1,1,1,1,1,1,1,1,1,1,1,1,1,1,1,1,1,1,1,39
"4xD1S2hKFZRKfnyCl7gEjET53h",3235343,875,FALSE,211763,1,1,1,1,1,1,1,1,1,1,1,1,1,1,1,0,1,1,1,1,1,1,1,1,1,1,1,1,1,0,0,1,0,1,1,0,0,0,0,0,31
"4Xjnc2biS3KBg0r9hduthXeRJW",4275766,1255,FALSE,127198,1,1,1,1,1,1,1,1,1,1,1,1,1,1,1,0,1,1,1,1,1,1,1,1,1,1,1,1,1,1,1,1,1,1,1,1,1,0,1,1,38
"4YY4VgQpQUT7XI8wSdEhkK7n8X",2717487,1241,FALSE,79114,1,1,1,1,1,1,1,1,1,1,1,1,1,1,1,0,1,1,1,1,1,1,1,1,1,1,1,1,1,1,1,1,1,1,1,0,0,0,0,0,34
"51egDHD2r1LQhu4Qg9hzDtGJgD",2903341,1097,FALSE,170178,1,1,1,1,1,1,1,1,1,1,1,1,1,1,1,0,1,1,1,1,1,1,1,1,0,1,1,1,1,1,1,1,1,0,1,0,0,1,0,0,33
"52YXud0Bqte11TiBcsX8mneCWt",4668355,846,TRUE,601002,1,1,1,1,1,1,1,1,1,1,1,1,1,1,1,0,1,1,0,1,1,1,1,1,1,1,0,1,1,0,1,1,1,0,0,1,1,0,0,0,31
"53L5H9pp7XehsYC3rE050tF3j8",880674,620,FALSE,153553,1,1,1,1,1,1,1,1,0,1,1,1,1,1,1,0,1,1,1,1,1,1,1,1,1,1,1,1,1,1,1,1,0,1,1,0,1,0,0,0,33
"5DtJjG6qCScAYie44TvPwt7cLI",268659,13,FALSE,224592,1,1,1,1,1,1,1,1,1,1,1,1,1,1,1,0,1,1,1,1,1,1,1,1,1,1,1,1,1,1,1,1,0,1,1,1,0,0,1,1,36
"5EB7i7qgwGEmOZZzi90rgZvnM3",2880339,668,FALSE,169812,1,1,1,1,1,1,1,1,1,1,1,1,1,1,1,0,1,1,1,1,1,1,1,1,1,1,1,1,1,1,1,1,1,1,1,1,0,1,0,1,37
"5eBMwOLtbLdc236rQtEs4aUi2M",848744,55,FALSE,175533,1,1,1,1,1,1,1,1,1,1,1,1,1,1,1,0,1,1,1,1,1,1,1,1,1,1,0,1,1,1,1,1,1,0,0,0,0,0,0,0,31
"5EdRPYgtEf7yjz69xfoUCWZbDG",4396452,558,FALSE,138941,1,1,1,1,1,1,1,1,1,1,1,1,1,1,1,0,1,1,1,1,1,1,1,1,1,1,1,1,1,1,1,1,0,1,1,0,1,0,0,1,35
"5eI07HnYh7wDAtGEW1k99Lhb9s",2455786,563,FALSE,318804,1,1,1,1,1,1,1,1,1,1,1,0,1,1,1,0,1,1,1,1,1,1,1,1,1,1,1,1,0,0,0,1,0,1,1,1,0,0,0,0,30
"5hrsRhnqwI46ywxbQ5N6yKNXZL",14894232,1122,FALSE,150611,1,1,1,1,1,1,1,1,1,1,1,1,1,1,1,0,1,1,1,1,1,1,1,1,1,1,1,1,1,1,1,1,1,1,1,1,1,0,0,1,37
"5Imk5JDFcQADnpEkUV1xCXLZ5T",1913029,221,FALSE,183521,1,1,1,1,1,1,1,1,1,1,1,1,1,1,1,0,1,1,1,1,1,1,1,1,1,1,1,1,1,1,0,1,1,1,1,0,0,0,0,1,34
"5jCA0DTYrHaWMK2QfUeF1mtbW9",6885176,813,FALSE,489582,1,1,1,1,1,1,1,1,1,1,1,1,1,1,1,0,1,1,1,1,1,1,1,0,1,1,1,0,1,0,0,1,1,0,1,1,1,0,0,0,31
"5jqnnt8AkNg9sxYVdEvPYMQ62u",2907851,1208,FALSE,121123,1,1,1,1,1,1,1,1,1,1,1,1,1,1,1,0,1,1,1,1,1,1,1,1,1,1,1,1,1,1,1,1,0,1,1,0,0,0,0,1,34
"5NbYthY4uj3sgRjZNACiPl1Fz8",3076413,835,FALSE,162597,1,1,1,1,1,1,1,1,1,1,1,1,1,1,1,0,1,1,1,1,1,1,1,1,1,1,1,1,1,1,1,1,0,1,1,0,1,0,0,1,35
"5p0CPHRH7ivOoH3ESSFsPJctb6",950043,607,FALSE,129169,1,1,1,1,1,1,1,1,1,1,1,1,1,1,1,0,1,1,1,0,1,1,1,1,1,0,1,1,0,1,0,1,0,0,0,0,1,1,0,0,29
"5PRTYvWvvGaKrC40ZxQZHCJUwt",3480810,1114,FALSE,253033,1,1,1,1,1,1,1,1,1,1,1,1,1,1,1,0,1,1,1,1,1,1,1,1,1,1,1,1,1,1,1,1,1,1,1,1,0,1,1,1,38
"5Q0Yab55ZyTkrI9GqBJcywjHF3",5029356,1256,FALSE,203762,1,1,1,1,1,1,1,1,1,1,0,1,1,1,1,0,1,1,1,1,1,1,1,1,1,1,1,1,1,1,1,1,1,1,1,1,1,0,0,0,35
"5RgwjomyG6v004L1eTzvBPgLfC",524615,13,FALSE,351547,1,1,1,1,1,1,1,1,1,1,1,0,1,1,1,0,1,1,1,1,1,1,1,1,1,1,1,1,1,0,1,1,0,1,1,1,1,1,1,0,35
"5SDhi2tbdhTAW1kxT83ScggiI4",4545845,685,FALSE,181272,1,1,1,1,1,1,1,1,1,1,1,1,1,1,1,0,1,1,1,1,1,1,1,1,1,1,1,1,1,0,0,1,1,1,0,1,0,0,0,0,32
"5tYWdaOmGDyaUhLlN5Bk63kFLI",127346,13,FALSE,105096,1,1,1,1,1,1,1,1,1,1,1,1,1,1,1,0,1,1,1,1,1,1,1,1,1,1,1,1,1,1,1,1,1,1,1,1,1,1,1,1,39
"5urfj5qY9KkLrHdIAoA9qLuzCB",2179585,1063,FALSE,187133,1,1,1,1,1,1,1,1,1,1,1,1,1,1,1,0,1,1,1,1,1,1,1,1,1,1,1,1,1,1,0,1,1,1,1,0,0,0,0,1,34
"5v0shu1TXvcLAq6XkkWObpTxVv",4842343,1105,FALSE,219320,1,1,1,1,1,1,1,1,1,1,1,1,1,1,1,0,1,1,1,1,1,1,1,1,1,1,1,1,1,0,1,0,0,1,1,1,0,1,0,0,33
"5ybeN6VNzHGX8nFw5gMPiwIl0R",1411457,986,FALSE,155299,1,1,1,1,1,1,1,1,1,1,1,1,1,1,1,0,1,1,1,1,1,1,1,1,1,1,1,1,1,1,1,1,1,1,1,1,1,1,1,1,39
"5zJq7GS1asQAvQoLLof0K8pKru",720278,383,FALSE,196413,1,1,1,1,1,1,1,1,1,1,1,1,1,1,1,0,1,1,1,1,1,1,1,1,1,1,1,1,1,1,1,1,1,1,1,0,0,0,0,0,34
"66CDpWtf64sUmQsfxG5zYDXIuI",4613663,1243,FALSE,142010,1,1,1,1,1,1,1,1,1,1,1,1,1,1,1,0,1,1,1,1,1,1,1,1,1,1,1,1,1,1,1,1,0,1,1,1,0,1,1,1,37
"68mBwIupnteIzRtKsaLLVjXwRp",773550,369,FALSE,180277,1,1,1,1,1,1,1,1,1,1,1,1,1,1,1,0,1,1,1,1,1,1,1,1,1,1,1,1,1,1,1,1,1,1,1,0,1,0,1,0,36
"69sCUvVktIVPFuv9n2mJthlPdm",473577,21,FALSE,173090,1,1,1,1,1,1,1,1,1,1,1,1,1,1,1,0,1,1,1,1,1,1,1,1,1,1,1,1,1,1,1,1,0,1,1,1,0,0,0,0,34
"6a7grifZTCWtkKHONY4ZBFNmNK",4405231,1125,TRUE,601023,1,1,1,1,1,1,1,1,0,1,1,1,1,1,1,0,1,1,1,1,1,1,1,1,1,1,1,1,1,1,0,1,0,1,1,0,0,1,0,0,32
"6bFa7I9jlg64chw4N8A7sVmMQ3",61342391,1233,FALSE,297051,1,1,1,1,1,1,1,1,1,1,1,1,1,1,1,0,1,1,1,1,1,1,1,1,1,1,1,1,1,1,0,1,1,1,1,1,1,1,1,1,38
"6Fhr7EYTgZahid47o4KE893siL",3573481,858,FALSE,204691,1,1,1,1,1,1,1,1,1,1,1,1,1,1,1,0,1,1,1,1,1,1,1,1,1,1,1,1,1,1,1,1,0,1,1,1,1,0,1,0,36
"6HcgsHUNyHAvOPjDbj3z1QO6x0",884537,612,FALSE,123460,1,1,1,1,1,1,1,1,1,1,1,1,1,1,1,0,1,1,1,1,1,1,1,1,1,1,1,1,1,1,1,1,0,1,1,1,0,1,0,0,35
"6hDoD3dNQwPPXLhlvl7ICsClrG",2390802,607,FALSE,139309,1,1,1,1,1,1,1,1,1,1,1,1,1,1,1,0,1,1,1,1,1,1,1,1,1,1,1,1,1,1,0,1,1,0,0,0,0,0,0,0,31
"6K1LGFH6tXIN9FR4jZ7NDJ4Mmx",4031098,1213,FALSE,200038,1,1,1,1,1,1,1,1,1,1,1,1,1,1,1,0,1,1,1,1,1,1,1,1,1,1,1,1,1,1,1,1,1,1,1,1,1,1,1,1,39
"6kYVg7CmiM211jXzzoV5C2DYKj",5627239,785,FALSE,135497,1,1,1,1,1,1,1,1,1,1,1,1,1,1,1,0,1,1,1,1,1,1,1,1,1,1,1,1,1,1,1,1,1,0,1,1,1,1,0,0,36
"6Miu1B5YnB4oBvORD2tBPHc5zo",2972436,758,FALSE,162138,1,1,1,1,1,1,1,1,1,1,1,1,1,1,1,0,1,1,1,1,1,1,1,1,1,1,1,1,1,1,1,1,1,1,1,0,1,0,0,0,35
"6nhpMpKhlGeE8HdJUpyY9fWfnt",25821130,1256,FALSE,380735,1,1,1,1,1,1,1,1,1,1,1,1,1,1,1,0,1,1,0,1,1,1,1,1,1,1,1,1,1,0,0,1,0,1,1,0,0,0,1,0,31
"6PiYKQeGAB1dR4f9dvUVzumRkv",2858270,1053,FALSE,235122,1,1,1,1,1,1,1,1,1,1,1,1,1,1,1,0,1,1,1,1,1,1,1,1,1,1,1,1,1,1,1,1,1,1,1,1,1,1,1,1,39
"6pKI6iCVG7WdLF0Mf9nAPpZf5c",2825396,540,FALSE,240163,1,1,1,1,1,1,1,1,1,1,1,1,1,1,1,0,1,1,1,1,1,1,1,0,1,1,0,1,1,1,0,0,0,0,0,1,1,0,0,0,29
"6pvUjImkWLRJHbVhvgsHbTt7nO",483045,22,FALSE,301962,1,1,1,1,1,1,1,1,0,1,1,1,1,1,1,0,1,1,1,1,1,1,0,1,1,0,1,1,1,1,1,0,1,1,1,1,0,1,1,1,34
"6qH9fWrGYP7HfUk0HdH1qxtqMJ",2657145,957,FALSE,140969,1,1,1,1,1,1,1,1,1,1,1,1,1,1,1,0,1,1,1,1,1,1,1,1,1,1,1,1,1,1,1,1,1,1,1,0,1,0,0,1,36
"6sgmuObbk4XMUNmgt2z4iwhbmp",84983886,1255,FALSE,297122,1,1,1,1,1,1,1,1,1,1,1,1,1,1,1,0,1,1,1,1,1,1,1,1,1,0,1,0,0,0,0,1,1,0,0,0,0,1,0,0,28
"6thrHrEOsUDYmOPl5Bcz4O0bZr",2301349,1132,FALSE,111173,1,1,1,1,1,1,1,1,1,1,1,1,1,1,1,0,1,1,1,1,1,1,1,1,1,1,1,1,1,1,1,1,0,1,1,0,0,0,0,0,33
"6U2gr19I2NQiM5gSpro6PGjOi7",5606392,462,FALSE,201076,1,1,1,1,1,1,1,1,1,1,1,1,1,1,1,0,1,1,1,1,1,1,1,1,1,1,1,1,1,1,1,1,1,1,1,1,0,1,1,1,38
"6WJIN2WG2fOnkRmofBOEla4m2v",2170477,504,FALSE,295064,1,1,1,1,1,1,0,1,0,1,1,1,1,1,0,0,1,0,1,1,0,1,1,0,1,1,1,1,0,0,0,1,1,0,1,0,0,1,0,0,25
"70b44M5mB4Xr2mjMPQ7b9FugA3",925023,604,FALSE,191910,1,1,1,1,1,1,1,1,1,0,0,1,0,1,1,0,0,0,1,1,1,0,0,0,0,0,0,0,0,0,0,1,1,0,0,1,0,0,0,0,18
"74pmzKgVPXzP6Q2qHhOhZDTkPC",507466,35,FALSE,183967,0,1,1,1,1,1,1,1,1,1,1,1,1,1,1,0,1,1,1,1,1,1,1,1,1,1,1,1,1,1,0,0,1,1,1,1,1,1,0,0,34
"76ScTXpOIKnsWnSve5wcAjsEwN",1471235,490,FALSE,145877,1,1,1,1,1,1,1,1,1,1,1,1,1,1,1,0,1,1,1,1,1,1,1,1,0,1,1,1,1,0,0,1,1,1,1,0,0,0,0,0,31
"76ZEl33J4Cl7rMcsRDqAEcmDW8",2662291,180,FALSE,126269,1,1,1,1,1,1,1,1,1,1,1,1,1,1,0,0,1,1,1,1,1,1,1,1,1,1,1,1,1,1,1,1,1,1,1,1,0,0,0,1,35
"79lj7GPPIXA51cvbjmPqxUbElj",1090678,590,FALSE,356720,1,1,1,1,1,1,1,1,1,1,1,1,0,0,1,0,0,0,1,1,1,1,1,1,1,1,1,1,0,1,0,0,1,1,0,0,0,0,0,0,26
"79wi127Ma9Jx2Cdfd3QrCLkTxy",3407132,549,FALSE,283884,1,1,1,1,1,1,1,1,1,1,1,1,1,1,1,0,1,1,1,1,1,1,1,1,1,1,1,1,1,1,1,1,1,1,1,1,1,1,1,1,39
"7aFwor6BraYf7tYTQIknN5wRR3",1767360,410,FALSE,151628,1,1,1,1,1,1,1,1,1,1,1,1,1,1,1,0,1,1,1,1,1,1,1,1,1,1,1,1,1,1,1,1,1,1,1,1,1,0,1,0,37
"7FL755kgTiuq0qX8hCziZrt2J4",43561305,1256,FALSE,214573,1,1,1,1,1,1,1,1,1,1,1,1,1,1,1,0,1,1,1,1,1,1,1,1,1,1,1,1,1,1,1,1,1,1,1,1,1,1,1,1,39
"7H8Cmnmb32dMAe3ALUoTKfiErN",219572057,802,FALSE,507859,1,1,1,1,1,1,1,1,1,1,1,1,1,1,1,0,1,1,1,1,1,1,1,1,1,1,1,1,1,1,1,1,1,1,1,0,1,1,1,1,38
"7k7aW77piICDhQRpAUcpBDuXbD",9741187,880,TRUE,601007,1,1,1,1,1,1,1,1,1,1,1,1,1,1,1,0,1,1,1,1,1,0,1,0,0,1,1,0,1,1,0,1,1,0,1,1,1,0,1,1,32
"7m1MZQwUVobbHPQlBoZ74HwA2M",2242610,662,FALSE,157906,1,1,1,1,1,1,1,1,1,1,1,1,1,1,1,0,1,1,1,1,1,1,1,1,1,1,1,1,1,1,1,0,1,1,1,1,1,0,0,0,35
"7MEKHphv0xo5tSsWdzYaorO0rb",1926812,483,FALSE,191156,1,1,1,1,1,1,1,1,1,1,1,1,1,1,1,0,1,1,1,1,1,1,1,1,1,1,1,1,1,0,0,0,1,0,0,1,0,0,0,0,30
"7nmTXxgyKTFac3ppfcERXMyXo6",505997,26,FALSE,255762,1,1,1,1,1,1,1,1,1,1,1,1,1,1,1,0,1,1,1,1,1,1,0,1,1,1,1,1,1,0,1,1,0,0,0,1,0,1,1,0,32
"7OYfMEHw3DTC2EAjBJAxDhpy5x",1381183,476,FALSE,118221,1,1,1,1,1,1,1,1,1,1,1,1,1,1,1,0,1,1,1,1,1,1,1,1,1,1,1,1,1,1,1,1,0,1,0,0,0,0,0,1,33
"7UXg8VDDs1YVZr5G0CNpHAtPl1",4072962,1221,FALSE,125874,1,1,1,1,1,1,1,1,1,1,1,1,1,1,1,0,1,1,1,1,1,1,1,1,1,1,1,1,1,1,1,1,1,1,1,1,0,1,1,0,37
"7wDjfF5VTJUbeqHbBzRCf4aPAK",343943,13,FALSE,274756,1,1,1,1,1,1,1,1,1,1,1,1,1,1,1,0,1,1,1,1,1,1,1,1,1,1,1,1,1,1,1,1,1,1,1,1,0,0,1,1,37
"7WX8swjrfYUvYzOMyC5gys9LNQ",2246997,736,FALSE,197806,1,1,1,1,1,1,1,1,1,1,1,1,1,1,1,0,1,1,1,1,1,1,1,1,1,1,1,1,1,1,1,1,1,1,1,1,0,1,1,1,38
"7XXGj4SN6wxi44sk5bZSxSMW7P",4752356,1243,FALSE,133970,1,1,1,1,1,1,1,1,1,1,1,1,1,1,1,0,1,1,1,1,1,1,1,1,1,1,1,1,1,1,1,1,1,0,1,0,1,0,0,1,35
"84h3B0ggqh8xmCHE7NLIrQujWH",149210072,748,FALSE,576027,1,1,1,1,1,1,1,1,1,1,1,1,1,1,1,0,1,1,1,1,1,1,1,1,1,1,1,1,1,0,1,0,1,1,1,1,0,0,1,1,35
"84PLFNiExxQCKcrdLQWvpuCBaB",2255369,786,FALSE,144733,1,1,1,1,1,1,1,1,1,1,1,1,1,1,1,0,1,1,1,1,1,1,1,1,1,1,1,1,1,1,1,1,0,0,0,0,0,1,1,0,33
"85bZHDnMDP1yVKxIrMwhTdN8yz",89471821,1200,FALSE,95135,1,1,1,1,1,1,1,1,1,1,1,1,1,1,1,0,1,1,1,1,1,1,1,1,0,1,1,1,1,1,1,1,1,0,1,0,0,0,1,0,33
"874PVDOpRkGVH7Fr6zGLWlDN3G",4140869,895,FALSE,116753,1,1,1,1,1,1,1,1,1,1,1,1,1,1,1,0,1,1,1,1,1,1,1,1,1,1,1,1,1,1,1,1,1,1,1,1,1,0,1,0,37
"8ApIwIFkI0yXiLkYaxzqllsVFs",1758338,1034,FALSE,145246,1,1,1,1,1,1,1,1,1,1,1,1,1,1,1,0,1,1,1,1,1,1,1,1,0,0,0,1,1,0,1,1,1,0,1,1,1,0,0,0,31
"8bEsIueE2DwmGo4Pu6wRulbCua",1017596,42,FALSE,283150,1,1,1,1,1,1,1,1,1,1,1,1,1,1,1,0,1,1,1,1,1,1,1,1,1,1,1,1,1,1,0,1,1,1,0,0,1,0,0,0,33
"8bgCouBCOHZJ1N9pEySwAagUrk",3746286,432,FALSE,178642,1,1,1,1,1,1,1,1,1,1,1,1,1,1,1,0,1,1,1,1,1,1,1,1,1,1,1,1,1,1,1,1,1,1,1,0,1,1,0,0,36
"8c4mLmJE8S8XJb2pXitpmtcBPF",9392282,1182,FALSE,130584,1,1,1,1,1,1,1,1,1,1,1,1,1,1,1,0,1,1,1,1,1,1,1,1,1,1,1,1,1,1,0,1,1,1,1,0,1,0,0,1,35
"8DgoVqRpPsz7KMty7u3tXt9qxF",6049555,1205,FALSE,187306,1,1,1,1,1,1,1,1,1,1,1,1,1,1,1,0,1,1,1,1,1,1,1,1,1,1,1,1,1,1,0,1,0,1,1,0,1,0,0,1,34
"8FctbTr2LbAaxxZ6rPv6etK2Nu",4060760,1221,FALSE,178806,1,1,1,1,1,1,1,1,1,1,1,1,1,1,1,0,1,1,1,1,1,1,1,1,1,0,1,1,1,1,1,1,1,1,1,0,1,0,0,0,34
"8jQHWp09QBlMKBrZ1YGGjXyYxz",14982141,1256,FALSE,327381,1,1,1,1,1,1,1,1,1,1,1,1,1,1,1,0,1,1,1,1,1,1,1,1,1,1,1,1,1,1,1,1,1,0,1,1,1,1,1,1,38
"8LES8UBFjPif7RVOZl8PC7rPeE",6385000,269,FALSE,431385,1,1,1,1,1,1,1,1,1,1,1,1,1,1,1,0,1,1,1,1,1,1,1,1,1,1,1,1,1,1,1,1,0,1,1,1,1,1,1,1,38
"8nIOwUjtYgI4aIKJ9aNTf8h16u",1236660,382,FALSE,249626,1,1,1,1,1,1,1,1,1,1,1,1,1,1,1,0,1,1,1,1,1,1,1,1,1,1,1,1,1,1,1,1,1,1,1,1,1,1,0,1,38
"8PVfSWdBgLigUlwLmQragvj5mE",6691506,1245,FALSE,275533,1,1,1,1,1,1,1,1,1,1,1,1,1,1,1,0,1,1,1,1,1,1,1,1,1,1,1,1,1,1,1,1,0,1,1,0,0,0,0,1,34
"8rR5CZkUjI9Na55sEAqOyVEoi6",2305023,1040,FALSE,144315,1,1,1,1,1,1,1,1,1,1,1,1,1,1,1,0,1,1,1,1,1,1,1,1,1,1,1,1,1,1,0,1,0,1,1,0,0,1,1,1,35
"8scPoMC4a0FEC5Lvo739qAbkOe",3197432,852,FALSE,155356,1,1,1,1,1,1,1,1,1,1,1,1,1,1,1,0,1,1,1,1,1,1,1,1,1,1,1,1,1,1,0,1,0,1,1,0,0,1,0,0,33
"8xOXwosX5cfMvTkWRfoW22p27r",2694710,1040,FALSE,335139,1,1,1,1,1,1,1,1,1,1,1,1,1,1,1,0,1,1,1,1,0,1,1,1,1,1,0,1,1,1,1,1,1,1,0,1,0,1,1,1,35
"8ZjgrL7SaFwNjWlAMoNJ6lPx0a",2833876,972,FALSE,328492,1,1,1,1,1,1,1,1,1,1,1,1,1,1,1,0,1,1,1,1,1,1,1,1,1,1,1,1,1,1,1,1,1,1,1,1,1,1,0,1,38
"947j6OuHYqBJ61NArTeTpBW4zL",3450877,1214,FALSE,114004,1,1,1,1,1,1,1,1,1,1,1,1,1,1,1,0,1,1,1,1,1,1,1,1,1,1,1,1,1,0,0,1,1,0,1,0,1,1,0,0,33
"94zlDKCBLV1rPuaR54Dr6uAL1L",445701,27,FALSE,149035,1,1,1,1,1,1,1,1,1,1,1,1,1,1,1,0,1,1,1,1,1,1,1,1,1,1,1,1,1,1,1,1,1,1,0,0,0,1,0,0,34
"95UpB4pFQ6Ia6Qm3yEuDEWiBWM",1571828,159,FALSE,196549,1,1,1,1,1,1,1,1,1,1,1,1,1,1,1,0,1,1,1,1,1,1,1,1,1,1,1,1,1,1,1,1,1,1,1,1,1,1,1,1,39
"96gRRgh78dMlWt3bziYeu6Rd8I",2105323,539,FALSE,194230,1,1,1,1,1,1,1,1,1,1,1,1,1,1,1,0,1,1,1,1,1,1,1,1,1,1,1,1,1,1,0,1,1,0,1,1,1,0,0,1,35
"96vtEse7Jvrr4VFv8m8zN1lbAL",833500,21,FALSE,117881,1,1,1,1,1,1,1,1,1,1,1,1,1,1,1,0,1,1,1,1,1,1,1,1,1,1,1,1,1,1,1,1,0,1,1,0,0,0,0,0,33
"97DlY2McIjmlmrojpG20tDRjVe",3332715,665,FALSE,159895,1,1,1,1,1,1,1,1,1,1,1,1,1,1,1,0,1,1,1,1,1,1,1,1,1,1,1,1,1,1,0,1,0,0,1,0,1,0,0,0,32
"9dwP9jQVLp2W9VTjXnGWPDjhtK",2678189,1010,FALSE,167429,1,1,1,1,1,1,1,1,1,1,1,1,1,1,1,0,1,1,1,1,1,1,1,1,1,1,1,1,1,1,0,1,1,1,1,1,0,0,0,0,34
"9fwjlbHAqheUeBwXBT8BfWcYR0",3930142,1255,FALSE,303918,1,1,1,1,1,1,1,1,1,1,1,1,1,1,1,0,1,1,1,1,1,1,1,1,1,1,0,1,1,1,0,1,0,0,1,1,0,1,1,1,34
"9KKiBDB8gvPfFIhARfmrIMqkro",2628594,735,FALSE,165461,1,1,1,1,1,1,1,1,1,1,1,1,1,1,1,0,1,1,1,1,1,1,1,1,1,1,1,1,1,0,0,1,1,1,1,1,0,0,0,0,33
"9kNyMAtKimMGdmyucTDDH9Gdbn",632855,13,TRUE,601009,1,1,1,1,1,1,1,1,1,0,1,1,0,1,1,0,1,1,1,1,1,1,0,0,1,1,0,0,1,1,0,0,0,0,0,0,0,0,0,0,23
"9kvT3TjvbahUI86bi8B6yt9A7W",902029,74,FALSE,120896,1,1,1,1,1,1,1,1,1,1,1,1,1,1,1,0,1,1,1,1,1,1,1,1,1,1,1,1,1,1,1,1,0,1,0,1,0,0,0,1,34
"9n3biqvITwZCJsdZ4OCbmhEo8z",916783,32,FALSE,365667,1,1,1,1,1,1,1,1,1,1,1,1,1,1,1,0,1,1,1,1,1,1,1,1,1,1,1,1,1,1,1,1,1,1,1,1,1,1,1,1,39
"9nRV5nL8k9OuN33XyX0xcW9P7P",3259606,714,FALSE,307119,1,1,1,1,1,1,1,1,1,1,1,1,1,1,1,0,1,1,1,1,1,1,1,1,0,1,1,0,1,1,0,1,0,0,1,0,1,0,0,0,30
"9OkrlZUgb7ZLx9NSVRBCFK4Dxk",278309,13,FALSE,238115,1,1,1,1,1,1,1,1,1,1,1,1,1,1,1,0,1,1,1,1,1,1,1,1,1,1,1,1,1,1,1,1,0,1,1,1,0,1,1,1,37
"9p6Q7PA8LLQlw5QMWlgAZMtSf4",1454555,168,FALSE,362679,1,1,1,1,1,1,1,1,1,1,1,1,1,1,1,0,1,1,1,1,1,1,1,1,1,1,1,1,1,1,1,1,1,1,1,1,1,1,1,1,39
"9t5XADfcvfZyoIbexcMcOc4qnx",4147069,1171,FALSE,168568,1,1,1,1,1,1,1,1,1,1,1,1,1,1,1,0,1,1,1,1,1,1,1,1,1,1,1,1,1,1,1,1,0,1,1,0,1,0,1,1,36
"9Vx0KRe49skyX1hDDv5qfmx0Ti",883627,92,FALSE,161082,1,1,1,1,1,1,1,1,1,1,1,1,1,1,1,0,1,1,1,1,1,1,1,1,1,1,1,1,1,1,0,1,1,1,1,1,0,0,0,0,34
"9xbgt10GhID4ZK4my7FPN6vNgG",2001592,229,FALSE,149179,1,1,1,1,1,1,1,1,1,1,1,1,1,1,1,0,1,1,1,1,0,1,1,1,1,1,1,1,1,1,1,1,1,1,1,0,0,0,0,1,34
"9xKJaPnGXHvOroXPkmqaUghCh6",3225188,879,FALSE,177458,1,1,1,1,1,1,1,1,1,1,1,1,1,1,1,0,1,1,1,1,1,1,1,1,1,1,1,1,1,1,1,1,0,1,1,1,1,0,0,1,36
"a102dWSMaiQCdhZ5WEBZii4wSx",2330002,456,FALSE,180842,1,1,1,1,1,1,1,1,1,1,1,1,1,1,1,0,1,1,1,1,1,1,1,1,1,1,1,1,1,0,0,1,0,0,0,0,1,0,0,0,30
"A1vsYKVg7BpCDSvZ20x3IlIyBx",28484043,1175,FALSE,200200,1,1,1,1,1,1,1,1,1,1,1,1,1,1,1,0,1,1,1,1,1,1,1,1,1,1,1,1,1,1,1,1,1,1,1,1,1,0,1,0,37
"a5eJv6Iia0FSH2uLNCpxBtG9vg",4191491,1151,FALSE,129789,1,1,1,1,1,1,1,1,1,1,1,1,1,1,1,0,1,1,1,1,1,1,1,1,1,1,1,1,1,0,1,1,1,1,1,0,1,0,0,1,35
"a5OJWwnHuxTZ6ReWGAsO2kvGdd",6332876,793,FALSE,334041,1,1,1,1,1,1,1,1,1,1,1,1,1,1,1,0,1,1,1,1,1,1,1,1,1,1,1,1,1,1,1,1,1,1,1,0,0,1,1,1,37
"A6rBscEcjg1AI0t22CpbFBBuRA",6518687,101,FALSE,171306,1,1,1,1,1,1,1,1,1,1,1,1,1,1,1,0,1,1,1,1,1,1,1,1,1,1,1,1,1,1,1,1,1,1,1,0,0,0,0,0,34
"ABuKYtxJSfrr2zMqkiPdLsLI0u",276197,13,FALSE,188589,1,1,1,1,1,1,1,1,1,1,1,1,1,1,1,0,1,1,1,1,1,1,1,1,1,1,1,1,1,1,1,1,1,1,1,0,1,0,1,1,37
"ActlFYGADS2784gt2gPreSYNIV",1619500,454,FALSE,162066,1,1,1,1,1,1,1,1,1,0,1,1,1,1,1,0,1,1,1,1,1,1,1,0,1,1,1,1,1,1,0,0,0,1,1,0,1,1,0,0,31
"AdAvafMY8ywRFgRftcvuixBFPa",1223838,90,FALSE,121738,1,1,1,1,1,1,1,1,1,1,1,1,1,1,1,0,1,1,1,1,1,1,1,1,1,1,1,1,1,1,1,1,0,1,1,1,1,0,1,1,37
"aDDSZEOyQUEjKQKpkV4zO9Bq5w",1156367,77,FALSE,160915,1,1,1,1,1,1,1,1,1,1,1,1,1,1,1,0,1,1,1,1,1,1,1,1,1,1,0,1,1,0,0,0,1,1,0,0,0,1,0,1,31
"aGQrKwPkQw1Fe3A4lQpELAHRn8",3131443,713,FALSE,184870,1,1,1,1,1,1,1,1,1,1,1,1,1,1,1,0,1,1,1,1,1,1,1,1,1,1,1,1,1,1,1,1,1,1,1,0,0,0,1,1,36
"aHfPGsFCOlgThSgAu5ZPuQHEsX",2897790,839,FALSE,139920,1,1,1,1,1,1,1,1,1,1,1,1,1,1,1,0,1,1,1,1,1,1,1,1,0,1,1,1,1,1,1,0,0,0,1,0,0,0,0,0,30
"AJ39QKULmWW5WscSM3APu2VnN1",13589761,36,FALSE,187484,1,1,1,1,1,1,1,1,1,1,1,1,1,1,1,0,1,1,1,1,1,1,1,1,1,1,1,1,1,1,1,1,1,1,1,1,1,1,0,1,38
"aKesToTuDduWhxZSk71FKh4zDw",1434832,964,FALSE,169203,1,1,1,1,1,1,1,1,1,1,1,1,1,1,1,0,1,1,1,1,1,1,1,1,1,1,1,1,1,1,1,1,1,1,1,1,1,1,1,1,39
"akk9IJQ1GDSJu9lxUyXE9mfkGr",1475727,137,FALSE,202723,1,1,1,1,1,1,1,1,1,1,1,1,1,1,1,0,1,1,1,1,1,1,1,1,1,1,1,1,1,1,1,1,1,1,1,1,1,0,1,1,38
"AKvTS8q2Wak0hetyM6KuaY1THd",4593814,1202,FALSE,166464,1,1,1,1,1,1,1,1,1,1,1,1,1,1,1,0,1,1,1,1,1,1,1,1,1,1,1,1,1,1,0,1,1,1,1,0,0,1,0,0,34
"alDyFCZZ2y4sn8neuLWFXkyfep",3899530,868,FALSE,268609,1,1,1,1,1,1,1,1,1,1,1,1,1,1,1,0,1,1,1,1,1,1,1,1,1,1,1,1,1,0,1,1,1,0,1,0,0,0,1,0,33
"ALNT9ZKjERkIOs3LMgLIzVSbDs",303363,13,FALSE,242702,1,1,1,1,1,1,1,1,1,1,1,1,0,1,1,0,1,1,1,1,1,1,1,1,1,1,1,1,1,0,1,1,1,1,0,1,1,0,0,0,33
"ALufuM3fywKPGoqYDJahTr2c48",5357213,1244,FALSE,214506,1,1,1,1,1,1,1,1,1,1,1,1,1,1,1,0,1,1,1,1,1,1,1,1,0,1,1,1,1,1,1,1,1,1,1,0,1,0,0,1,35
"ALwuaSXCxXFIDBfEErwM3UCJ6F",245380,13,FALSE,187245,1,1,1,1,1,1,1,1,1,1,1,1,1,1,1,0,1,1,1,1,1,1,1,1,1,1,1,1,1,1,1,1,0,1,1,1,1,1,1,1,38
"AmlisAVgf6XS6OdfPrQmrVtZ9K",5452386,1040,FALSE,201546,1,1,1,1,1,1,1,1,1,1,1,1,1,1,1,0,1,1,1,1,1,1,1,1,1,1,1,1,1,1,1,1,0,1,1,1,1,0,1,1,37
"anaWaZ1n5vnrtqVJEpFO9nlbXV",441295,26,FALSE,230799,1,1,1,1,1,1,1,1,1,1,1,1,1,1,1,0,1,1,1,1,1,1,1,1,1,0,1,1,1,1,1,1,0,1,1,1,0,1,1,1,36
"ang5lpj29VjL2fpl6DUbHm7hyR",3103287,322,FALSE,150977,1,1,1,1,1,1,1,1,1,1,1,1,1,1,1,0,1,1,1,1,1,1,1,1,1,1,1,1,1,1,0,1,0,1,1,0,1,0,1,1,35
"AnIcn1LoFtdSN3heumdn6feY26",1783325,434,FALSE,115694,1,1,1,1,1,1,1,1,1,1,1,1,1,1,1,0,1,1,1,1,1,1,1,1,1,1,1,1,1,1,1,1,1,1,1,1,1,1,1,1,39
"ao5RfMOSePU4WhL7a9sbscMBxO",2232760,631,FALSE,297190,1,1,1,1,1,1,1,1,1,1,1,1,1,1,1,0,1,1,1,1,1,1,1,1,1,1,1,1,1,1,1,1,1,1,0,0,1,1,0,1,36
"aoiJgHqNw7u3ZkzWTt5p5JToVt",140316,13,FALSE,114767,1,1,1,1,1,1,1,1,1,1,1,1,1,1,1,0,1,1,1,1,1,1,1,1,1,1,1,1,1,1,1,1,1,1,1,1,1,0,0,1,37
"AOW7Y8XlriC2vARkhDDjXURSlr",4140342,1238,FALSE,171437,1,1,1,1,1,1,1,1,1,1,1,1,1,1,1,0,1,1,1,1,1,1,1,1,1,1,0,1,1,1,0,1,1,1,1,1,0,0,0,1,34
"apATS0iNTVTlxKF6fTYs1edIrM",1352823,23,FALSE,397538,1,1,1,1,1,1,1,1,1,1,1,1,1,1,1,0,0,1,1,1,1,1,1,1,0,1,1,1,0,1,1,1,1,1,0,1,1,1,1,1,35
"Aplymwxw0se7PucPkFJWRGmBAh",308021,13,FALSE,123932,1,1,1,1,1,1,1,1,1,1,1,1,1,1,1,0,1,1,1,1,1,1,1,1,1,1,1,1,1,1,1,1,1,1,1,1,0,0,0,1,36
"ArEkUOrmKWoFhBGujfDvoFEF3V",2134843,202,FALSE,153906,1,1,1,1,1,1,1,1,1,1,1,1,1,1,1,0,1,1,1,1,1,1,1,1,1,1,1,1,1,1,0,1,0,1,1,0,0,1,0,1,34
"aRg8OsqVaMVLpwb5kwt3dkM67f",428210,26,FALSE,187042,1,1,1,1,1,1,1,1,1,1,1,1,1,1,1,0,1,1,1,1,1,1,1,1,0,1,1,1,1,1,0,1,0,0,0,0,1,0,1,1,32
"ARItyTJtyNLtLFyyIvzMH9bZX4",1591013,194,FALSE,163034,1,1,1,1,1,1,1,1,1,1,1,1,1,1,1,0,1,1,1,1,1,1,1,1,1,1,1,1,1,1,1,1,1,1,1,0,0,1,1,0,36
"AS4rtcw5Sl1HU29JqLffnf10P1",3349712,1197,FALSE,125659,1,1,1,1,1,1,1,1,1,1,1,1,1,1,1,0,1,1,1,1,1,1,1,0,1,1,1,1,1,1,0,0,1,0,0,0,0,0,0,1,30
"ATAfPkbisQv4LGk9szCqOV5LPC",173111,13,FALSE,138162,1,1,1,1,1,1,1,1,1,1,1,1,1,1,1,0,1,1,1,1,1,1,1,1,1,1,1,1,1,1,1,1,1,1,1,1,1,0,0,1,37
"AtRYWQkvzaaKS96ar0xxrcwX8L",5207683,1090,FALSE,187685,1,1,1,1,1,1,1,1,1,1,1,1,1,1,1,0,1,1,1,1,1,1,1,1,1,1,1,1,1,1,1,1,1,0,1,0,0,1,0,0,34
"aU3rl1e3mnv9jUU1kYeFw4aLiJ",1375743,952,FALSE,148579,1,1,1,1,1,1,1,1,1,1,1,1,1,1,1,0,1,1,1,1,1,1,1,1,1,1,1,1,0,1,1,1,0,1,0,0,1,1,0,0,33
"aVAP8khT5Tw2zNKGF6NvgIRnf4",353057,13,FALSE,320608,1,1,1,1,1,1,1,1,1,1,1,1,1,1,1,0,1,1,1,0,1,1,1,0,1,0,1,0,1,0,0,1,1,1,1,0,1,1,1,1,32
"AWElVPHqaXLcnH3poWoNNi0W4m",944394,408,FALSE,113333,1,1,1,1,1,1,1,1,1,1,1,1,1,1,1,0,1,1,1,1,1,1,1,1,1,1,1,1,1,1,0,1,1,1,1,0,1,0,0,1,35
"AwuYu4xTd9Jrno8YSWlio7T8BP",2958715,806,FALSE,422757,1,1,1,1,1,1,0,1,1,1,1,1,1,1,1,0,1,1,1,1,1,1,1,1,0,1,1,1,1,1,0,1,1,1,1,0,1,0,0,0,32
"ay77ags5ZUxdVdMQ1jrIuRI6sJ",4396008,865,FALSE,241881,1,1,1,1,1,1,1,1,1,1,1,1,1,1,1,0,1,1,1,1,1,1,1,1,1,1,1,1,1,1,1,1,1,1,1,0,0,0,1,1,36
"AyapVkTLmjL2DKR8JHKnVzMs6H",1171104,21,FALSE,359415,1,1,1,1,1,1,1,1,1,1,1,1,1,1,1,0,1,1,1,1,1,1,1,1,1,1,1,1,1,1,1,1,1,1,1,1,1,1,1,1,39
"aZ25KMt1g0ZBx6kI8JE7ZvrhxB",986763,22,FALSE,225654,1,1,1,1,1,1,1,1,1,1,1,1,1,1,1,0,0,1,1,0,1,1,0,0,0,1,0,1,0,0,1,0,0,0,0,1,0,0,0,0,23
"azhFg2TOsqgIxqlTDSbnKzinjz",6163777,1219,FALSE,148159,1,1,1,1,1,1,1,1,1,1,1,1,1,1,1,0,1,1,1,1,1,1,1,1,1,1,1,1,1,1,0,1,1,1,1,1,0,0,0,1,35
"aZHGeps5oVHwh5zO5mPcC7DdKC",1011228,50,FALSE,228050,1,1,1,1,1,1,1,1,1,1,1,1,1,1,1,0,1,1,1,1,1,1,1,1,1,1,1,1,1,0,1,1,0,1,0,1,1,1,1,1,36
"AzIsmFVEWyuJAXOauozs6LOVXC",581771,26,FALSE,385665,1,1,1,1,1,1,1,1,1,1,1,1,1,1,1,0,1,0,1,1,1,1,1,1,1,1,1,1,1,1,1,1,0,1,1,1,1,1,1,1,37
"AZYM6QGkq0tJyahvSD1G1In9Ny",6031515,539,FALSE,319048,1,1,1,1,1,1,1,1,1,1,1,1,1,1,1,0,1,1,1,1,1,1,1,1,1,1,1,1,1,0,0,1,1,1,1,1,1,1,1,1,37
"b3YOjfIB8YEGxYVZ0AYUOF9160",1174513,68,FALSE,248071,1,1,1,1,1,1,1,1,1,1,1,1,1,1,1,0,1,1,1,1,1,1,1,1,1,1,1,1,1,1,0,1,1,1,1,0,1,0,0,0,34
"b4v07zM7gbPMX3Vq3qWhJQXr2U",2189768,274,FALSE,212945,1,1,1,1,1,1,1,1,1,1,1,1,1,1,1,0,1,1,1,1,1,1,1,1,1,1,1,1,1,0,0,0,0,1,0,0,0,0,0,0,29
"b5R9l1JAfcy31xSCnsLCBE5l01",6033675,1116,FALSE,119929,1,1,1,1,1,1,1,1,1,1,1,1,1,1,1,0,1,1,1,0,1,1,1,1,1,0,1,0,1,1,1,1,1,1,1,1,0,0,0,0,32
"b7Tt16Q9S0DpUYQUHxUUCI020q",839586,30,FALSE,157403,1,1,1,1,1,1,1,1,1,1,1,1,1,1,1,0,1,1,1,1,1,1,1,1,1,1,1,1,1,1,1,1,0,1,1,0,0,0,0,0,33
"B8X7t49KzXNIOTfgJQckbSnXDO",2911076,1070,FALSE,163913,1,1,1,1,1,1,1,1,1,1,1,1,1,1,1,0,1,1,1,1,1,1,1,1,0,1,1,1,1,0,0,1,1,0,0,1,0,0,0,1,31
"b94O7RSaJ6abAexfGc7VBWDgL1",7201621,591,FALSE,217619,1,1,1,1,1,1,1,1,1,1,1,1,1,1,1,0,1,1,1,1,1,1,1,1,1,1,1,1,1,1,1,1,0,1,1,0,1,0,0,0,34
"baNxSEyZ1XOCjJW24VEnONHxiN",2326776,744,FALSE,156386,1,1,1,1,1,1,1,1,1,1,1,1,0,1,1,0,1,1,1,0,1,1,0,1,1,0,0,0,0,1,1,1,1,1,1,0,0,0,0,0,27
"BDElTiyaAhZa61NaznXzhWFu1D",6564367,1217,FALSE,127112,1,1,1,1,1,1,1,1,1,1,1,1,1,1,1,0,1,1,1,1,1,1,1,1,1,1,1,1,1,1,1,1,1,1,1,1,1,0,1,1,38
"bDfpHT3LW6t7tm5QCeawxmY3T2",225574,14,FALSE,191894,1,1,1,1,1,1,1,1,1,1,1,1,1,1,1,0,1,1,1,1,1,1,1,1,1,1,1,1,1,1,1,1,0,1,1,0,1,0,1,0,35
"BdKRtW0uzV0lD3vMLBXh5Jse0j",2528469,127,FALSE,297335,1,1,1,1,1,1,1,1,1,1,1,1,1,1,1,0,1,1,1,1,1,1,1,1,1,1,1,1,1,1,1,0,1,0,1,0,0,0,0,0,32
"BDxePVctBzowI5QC9NZglfZgQa",3846268,1268,FALSE,541715,1,1,1,1,1,1,1,1,1,1,1,1,1,1,1,0,1,1,0,1,1,1,1,1,1,1,1,1,1,1,1,0,1,1,1,1,0,1,1,1,36
"bE7MMvDosD3arKpEemOEkXv8iw",773469,44,FALSE,232853,1,1,1,1,1,1,1,1,1,1,1,1,1,1,1,0,1,1,1,1,1,1,1,1,1,1,1,1,1,0,0,1,1,0,1,1,0,1,0,0,33
"BF63tzVzldUCkttAqFEXhoocG8",3545871,1201,FALSE,277175,1,1,1,1,1,1,1,1,1,1,1,1,1,1,1,0,1,1,1,1,1,1,1,1,1,1,1,1,1,1,1,1,1,1,1,1,1,1,1,0,38
"bfwn3dJN4ZCqYTTR48Fx4bBGYe",361173,13,FALSE,341067,1,1,1,1,1,1,1,1,1,1,1,1,1,1,1,0,1,1,1,1,1,1,1,1,1,1,1,1,1,1,1,1,1,1,1,0,1,0,1,1,37
"bFxYYHUCBk1vvJFeDnekoCWFZs",1446666,162,FALSE,121735,1,1,1,1,1,1,1,1,1,1,1,1,1,1,1,0,1,1,1,1,1,1,1,1,1,1,1,1,1,1,0,1,1,0,1,1,0,0,0,0,33
"bg0ALjtwVzuvYAbg3pyeC6QeRC",5145584,1233,FALSE,485992,1,1,1,1,1,1,1,1,1,1,1,1,1,1,1,0,1,1,1,1,1,1,1,1,1,1,1,1,1,1,1,1,1,1,1,1,0,1,1,1,38
"BH2cCcK0Rih6IIX3frJ3c3h5tF",4430832,889,FALSE,218724,1,1,1,1,1,1,1,1,1,1,1,1,1,1,1,0,1,1,1,1,1,1,1,1,1,1,1,1,1,1,1,1,1,1,1,1,1,1,1,1,39
"BIrdQwwxKDbQmq33pOqe5kQxjZ",2533481,755,FALSE,148297,1,1,1,1,1,1,1,1,1,1,1,1,1,1,1,0,1,1,1,1,1,1,1,1,1,1,1,1,1,1,0,1,1,1,1,0,1,0,0,0,34
"BkFfwAx9CIR54XiTcehhNUgz0t",1247259,451,FALSE,167353,1,1,1,1,1,1,1,1,1,1,1,1,1,1,1,0,1,1,1,1,1,1,1,1,1,1,1,1,1,1,1,1,1,1,1,0,0,0,0,1,35
"bkmWieFqC7KN2VKZ0dIr6dszMC",10660765,1092,FALSE,171208,0,1,1,1,1,1,1,1,1,1,1,1,1,1,1,0,1,1,1,1,1,1,1,1,1,1,1,1,1,1,0,1,0,1,1,0,1,0,0,1,33
"BllffKgk4TXAHkQ93P3b3AWCy0",305498,13,FALSE,267952,1,1,1,1,1,1,1,1,1,1,1,1,1,1,1,0,1,1,1,1,1,1,1,1,1,1,1,1,1,1,1,1,1,1,1,1,1,1,1,1,39
"bLoRBbZH7zyfcaxX5pkYrM6Sy5",2071839,812,FALSE,133334,1,1,1,1,1,1,1,1,1,1,1,1,1,1,1,0,1,1,1,1,1,1,1,1,1,1,1,1,1,1,1,1,1,1,1,1,1,1,1,1,39
"bn0qnvonBVFEvICedIA69EY6Y2",1809931,985,FALSE,213987,1,1,1,1,1,1,1,1,1,1,1,1,1,1,1,0,1,1,1,1,1,1,1,1,1,1,1,1,1,1,1,1,1,1,1,1,0,0,1,1,37
"bnADVnA9aPPvnDGvdTqy2EEmK4",1992711,470,FALSE,300106,1,1,1,0,1,1,0,1,1,1,0,1,0,0,1,0,0,0,1,1,0,0,1,0,0,1,0,0,1,0,0,1,0,0,1,0,0,0,0,0,17
"BntYnua8xBscel71pr37mNVfQi",2526338,691,FALSE,209772,1,1,1,1,1,1,1,1,1,1,1,1,1,1,1,0,1,1,1,1,1,1,1,1,1,1,1,1,1,1,0,1,0,1,1,1,1,0,0,1,35
"bnw28I4laUhKWOv9RaPXIQjPf5",8111994,104,FALSE,577283,1,1,1,1,1,1,1,1,1,1,1,1,1,1,1,0,1,1,1,1,1,1,1,1,1,1,1,1,1,1,0,1,1,1,1,1,1,0,0,0,35
"BonDBpmoYGSLErwzB0kVR6HcWS",1668223,425,FALSE,156708,1,1,1,1,1,1,1,1,1,1,1,1,1,1,1,0,1,1,1,1,1,1,1,1,1,1,1,1,1,1,0,1,1,1,1,1,0,0,1,0,35
"Bou1IUVHeRtQCc0jOUlUBNVNUO",2042073,760,FALSE,265804,1,1,1,1,1,1,1,1,1,1,1,1,1,1,1,0,1,1,1,1,1,1,1,1,0,1,1,1,1,1,1,0,0,0,1,1,0,0,1,0,32
"bPDxMMmB7mFEp0T6MEiS0BPjRR",3273641,1138,FALSE,158724,1,1,1,1,1,1,0,1,1,1,1,1,1,1,1,0,1,1,1,1,1,1,1,1,0,1,1,1,1,1,0,1,0,0,0,1,1,0,0,0,30
"bpfoQcKoLPBgVgxlY1oGgydIRp",3472676,1200,FALSE,132796,1,1,1,1,1,1,1,1,1,1,1,1,1,1,1,0,1,1,1,1,1,1,1,1,1,1,1,1,1,1,1,1,0,0,0,0,0,0,0,0,31
"bPtBDMXXlQDIdPHejUVxU4O44X",2786944,608,FALSE,453814,1,1,1,1,1,1,1,1,1,1,1,1,1,1,1,0,1,1,1,1,1,1,1,1,1,1,1,1,1,0,1,1,1,1,1,1,1,1,1,1,38
"Bqrh8iwMboz4JbGmREg6eJruHj",988601,21,FALSE,217500,1,1,1,1,1,1,1,1,1,1,1,1,1,1,1,0,1,1,1,1,1,1,1,1,1,1,1,1,1,1,1,1,1,1,1,1,1,1,1,1,39
"Brdabu7M0vkFwPuLzlPkEEuPF1",956890,51,FALSE,177189,0,1,1,1,1,1,1,1,1,1,1,1,1,1,1,0,1,1,1,1,1,1,1,1,1,1,1,1,1,1,0,1,1,0,1,1,0,0,0,0,32
"BRNFdBMcVLromaz6Z1yOVRgVZa",2073571,1083,FALSE,138948,1,1,1,1,1,1,1,1,1,1,1,1,1,1,1,0,1,1,1,1,1,1,1,1,0,1,1,1,1,1,1,1,0,0,1,0,0,0,0,1,32
"bsqcNRWN3oMJRe2RAJe1pGVh4p",1848381,124,FALSE,174930,1,1,1,1,1,1,1,1,1,1,1,1,1,1,1,0,1,1,1,1,1,1,1,1,1,1,1,1,1,0,1,1,1,1,0,0,0,0,0,0,32
"bSvTubBrrvNafoJpyUx6uzfSgh",1612682,69,FALSE,163133,1,1,1,1,1,1,1,1,1,1,1,1,1,1,1,0,1,1,1,1,1,1,1,1,1,1,1,1,1,1,1,1,1,1,1,1,1,0,1,1,38
"BUAQD3hBpGSHD7AtBMhHjcgaFH",4582374,1104,FALSE,197293,1,1,1,1,1,1,1,1,1,1,1,1,1,1,1,0,1,1,1,1,1,1,1,1,1,1,1,1,1,1,0,1,1,0,1,1,1,0,1,0,35
"BUJp05tGw2TXKNcr0VknD5fTEi",7688892,1251,FALSE,299929,1,1,1,1,1,1,1,1,1,1,1,1,1,1,1,0,1,1,1,1,1,1,1,1,1,1,1,1,1,1,1,1,1,1,1,1,1,1,1,1,39
"BVd1L29wmvCcJY9LGWd84DEEVK",282194,21,FALSE,128399,1,1,1,1,1,1,1,1,1,1,1,1,1,1,1,0,1,1,1,1,1,1,1,1,1,1,1,1,1,1,1,1,1,1,1,1,1,0,0,1,37
"BwWVgPuqtQd06w7qRZpqRRZP2k",3171052,461,FALSE,370623,1,1,1,1,1,1,1,1,1,1,1,1,1,1,1,0,1,1,1,1,1,1,1,1,1,1,1,1,1,1,1,1,1,1,1,0,0,0,0,1,35
"bXeXgzBCmUmDONaunaEP9qH3Jt",691467,47,FALSE,145482,1,1,1,1,1,1,1,1,1,1,1,1,1,1,1,0,1,1,1,1,1,1,1,1,1,1,1,1,1,1,0,1,0,0,1,1,0,0,1,1,34
"bY1VoVPMwfwjG9dQrNhkZs7s1R",4911304,1160,FALSE,129000,1,1,1,1,1,1,1,1,1,1,1,1,1,1,1,0,1,1,1,1,1,1,1,1,1,1,1,1,1,1,0,1,1,1,1,0,1,0,0,0,34
"BynFm7Ut3voAkgNYMeyulvNvSW",4486831,649,FALSE,186430,1,1,1,1,1,1,1,1,1,1,1,1,1,1,1,0,1,1,1,1,1,1,1,1,1,1,1,1,1,1,0,1,0,1,1,1,0,0,0,0,33
"BzLyF8y3kCpmn86wjHpMlw0xWn",3301887,610,FALSE,109860,1,1,1,1,1,1,1,1,1,1,1,1,1,1,1,0,1,1,1,1,1,1,1,1,0,0,1,1,1,1,1,1,0,0,0,0,0,0,1,1,31
"c0jjQle7p2yzly9w5A1QIGmis3",2932348,107,FALSE,441801,1,1,1,1,1,1,1,1,1,1,1,1,1,1,1,0,1,1,1,1,1,1,1,1,1,1,1,1,1,1,1,1,1,1,1,1,0,1,1,1,38
"C10ZWG6Evrs5QBrVL2VIR7clnS",1600656,622,FALSE,158457,1,1,1,1,1,1,1,1,1,1,1,1,1,1,1,0,1,1,1,1,1,1,1,1,1,1,1,1,1,1,1,1,1,1,1,1,1,0,1,1,38
"c2dDX9VKfOK2YJon9iEPwtYpgO",4404085,1255,FALSE,156309,1,1,1,1,1,1,1,1,1,1,1,1,1,1,1,0,1,1,1,1,1,1,1,1,1,1,1,1,1,1,1,1,1,1,1,0,0,0,0,0,34
"c4dVm0W47SXkpSeMcj7OZ0Taqf",2061557,468,FALSE,155766,1,1,1,1,1,1,1,1,1,1,1,1,1,1,1,0,1,1,1,1,1,1,1,1,1,1,1,1,1,1,1,1,0,1,1,1,0,0,1,1,36
"c58RtiymRDZOeQBm15WQkAdoqi",1218566,591,FALSE,166818,1,1,1,1,1,1,1,1,1,1,1,0,1,1,1,0,1,1,1,1,1,1,0,1,1,0,1,1,1,1,1,1,0,1,1,0,1,0,0,1,32
"C64PWwmF7NwNOf9VxHkXapjHu5",2493409,1017,FALSE,135543,1,1,1,1,1,1,1,1,1,1,1,1,1,1,1,0,1,1,1,1,1,1,1,1,1,1,1,1,1,1,1,1,1,0,1,0,1,1,1,1,37
"cAkAxCLm0LU334unu4uqB0OCq5",5099537,1169,FALSE,206606,1,1,1,1,1,1,1,1,1,1,1,1,1,1,1,0,1,1,0,1,1,1,1,0,0,0,0,1,1,1,0,1,0,0,0,0,1,1,1,1,29
"cbCEznomGisaFM7Kn8l94IAxga",2988603,712,FALSE,188106,1,1,1,1,1,1,1,1,1,1,1,1,1,1,1,0,1,1,1,1,1,1,1,1,1,1,1,1,1,1,1,1,1,1,1,1,1,0,1,0,37
"cbho8R0sIFzNFntknLXOaoKrGv",6370896,603,FALSE,242233,1,1,1,1,1,1,1,1,1,1,1,1,1,1,1,0,1,1,1,1,1,1,1,1,1,1,1,1,1,1,1,1,1,1,1,0,0,1,1,1,37
"ccSI9PWYV7z8Qr51vBwGIrLOot",5977817,606,FALSE,249285,1,1,1,1,1,1,1,1,1,1,1,1,1,1,1,0,0,1,1,0,1,1,1,0,1,0,0,0,0,0,0,0,0,0,0,0,1,0,0,0,22
"cd4Ue4xnblRnHCwsyHKBfWQfj6",2822692,824,FALSE,117777,1,1,1,1,1,1,1,1,1,1,1,1,1,1,1,0,1,1,1,1,1,1,1,1,1,1,1,1,1,0,1,1,1,1,1,1,1,0,1,1,37
"CDlB81XitWoO0lwqlmSozK6otW",246715,13,FALSE,219238,1,1,1,1,1,1,1,1,1,1,1,1,1,1,1,0,1,1,1,1,1,1,1,1,1,1,1,1,1,1,1,1,1,1,1,0,0,1,0,0,35
"cDLwYDwveA8LW92ikHehZqzYcX",3326500,1228,FALSE,128378,1,1,1,1,1,1,1,1,1,1,1,1,1,1,1,0,1,1,1,1,1,1,1,1,1,1,1,1,1,1,1,0,0,1,0,1,0,0,0,0,32
"CESZ1LnbZkv29csIQzPlI1NPi9",4790664,778,FALSE,486763,1,1,1,1,1,1,1,1,1,1,1,1,1,1,1,0,1,1,1,1,1,1,1,1,1,1,1,1,1,1,1,1,1,1,1,1,1,1,1,1,39
"ceYXsMjCaGVymKuBQ5853mbBHj",7765218,1216,TRUE,601030,1,1,1,1,1,1,1,1,1,1,1,1,1,1,1,0,1,1,1,1,1,1,1,1,1,1,1,1,1,1,1,0,1,1,1,1,0,1,1,1,37
"CGGdEgpJOVHhxNgrniqPJGONsc",19898486,769,FALSE,174474,1,1,1,1,1,1,1,1,1,1,1,1,1,1,1,0,1,1,1,1,1,1,1,1,1,1,1,1,1,1,1,1,1,1,1,1,1,0,0,1,37
"CHgoLMex7HALYMoMrFBClH4Q4K",11067745,427,FALSE,562156,1,1,1,1,1,1,1,1,1,1,1,1,1,1,1,0,1,1,1,0,1,1,0,1,1,1,0,1,1,0,1,0,1,0,1,1,1,1,0,1,32
"ChoDGzi33KmPv3MJT0j2CP4V7f",1147473,36,FALSE,113588,1,1,1,1,1,1,1,1,1,1,1,1,1,1,1,0,1,1,1,1,1,1,1,1,1,1,1,1,1,0,1,1,1,1,1,1,1,0,1,1,37
"cIdZTOzAy2lR0h0VZhJDXVjwjQ",21281170,779,FALSE,163091,1,1,1,1,1,1,1,1,1,1,1,1,1,1,1,0,1,1,1,1,1,1,1,1,1,1,1,1,1,1,1,1,1,1,1,1,1,1,1,1,39
"cIpEjgaoJsFESRS3wIDwKmdUh6",2135618,815,FALSE,120521,1,1,1,1,1,1,1,1,1,1,1,1,1,1,1,0,1,1,1,1,1,1,1,1,1,1,1,1,1,1,1,1,1,1,1,1,1,1,1,1,39
"Ckoss0U0IGSGXF4X3h0vc3yG1g",5498359,1157,FALSE,258710,1,1,1,1,1,1,1,1,1,1,1,1,1,1,1,0,1,1,1,1,1,1,1,1,1,1,1,1,1,1,1,1,1,1,1,1,1,1,1,1,39
"CKphzvK0Ywppg0xyAerv4ofIpE",3232631,1242,FALSE,88726,1,1,1,1,1,1,1,1,1,1,1,1,1,1,1,0,1,1,1,1,1,1,1,1,1,1,1,1,1,0,1,1,1,1,1,1,1,0,1,1,37
"cm6NbE2vNiinPhBLePCVfmuZVG",3031636,515,FALSE,164327,1,1,1,1,1,1,1,1,1,1,1,1,1,1,1,0,1,1,1,1,1,1,1,1,1,1,1,1,1,1,1,1,0,1,1,0,1,0,1,1,36
"CMwGIs8Q4DoTNmzYPzMkcGfNZs",5378901,666,FALSE,324683,1,1,1,1,1,1,1,1,1,1,1,1,1,1,1,0,1,1,1,1,1,1,0,1,1,1,1,1,1,1,1,1,1,1,1,1,0,1,1,1,37
"CnGmv6kP7xkOAk2fGKhsGZJshf",4318097,1142,FALSE,190102,1,1,1,1,1,1,1,1,1,1,1,1,1,1,1,0,1,1,1,1,1,1,1,1,1,1,1,1,1,1,1,1,1,1,1,1,1,1,1,1,39
"cnIL86wrNWZG4CKJAxrdBk0ytG",264969450,882,FALSE,239931,1,1,1,1,1,1,1,1,1,1,1,1,1,1,1,0,1,1,1,1,1,1,1,1,1,1,1,1,1,1,1,1,0,1,0,0,0,1,1,1,35
"cO3aO0UbBOnx8oFLOiJ2eY7v3s",782933,27,FALSE,278441,1,1,1,1,1,1,1,1,1,1,1,1,1,1,1,0,1,1,1,1,1,1,1,1,1,1,1,1,1,1,1,1,1,1,0,1,0,0,1,0,35
"cPB6YLIGgTkfy7ybLI7ZUzxiNw",659230,399,FALSE,103253,1,1,1,1,1,1,1,1,1,1,1,1,1,1,1,0,1,1,1,1,1,1,1,1,1,1,1,1,1,1,0,1,0,0,1,0,1,0,0,1,33
"Cq7erbjiHaow1HJBXbQSIgeKsO",5771848,1156,FALSE,238628,1,1,1,1,1,1,1,1,1,1,1,1,1,1,1,0,1,1,1,1,1,1,1,1,1,1,1,1,1,1,1,1,0,1,1,0,0,0,0,1,34
"Cqi4MseQh2z1m8w5rBVlvTN4gj",728075,21,FALSE,421904,1,1,1,1,1,1,1,1,1,1,1,1,1,1,1,0,1,1,1,1,1,1,0,0,1,1,1,1,1,1,1,0,0,0,0,1,1,0,0,1,31
"cqiyljyWtGirUyjr7LeG3fE8do",424552,22,FALSE,270277,0,1,1,1,1,1,1,1,1,1,1,1,1,1,1,0,1,1,1,1,1,1,1,1,1,1,1,1,1,1,1,1,1,1,1,1,1,1,1,1,38
"Cqso8nkqvu5G6EfN8Pt8csB0b7",11029303,1086,FALSE,174116,1,1,1,1,1,1,1,1,1,1,1,1,1,1,1,0,1,1,1,1,1,1,1,1,1,1,1,1,1,1,1,1,1,1,1,1,1,1,1,1,39
"Crg3hiDh4FvZZ0HGRZ4xbpx6S7",6032096,1090,FALSE,216011,1,1,1,1,1,1,1,1,1,1,1,1,1,1,1,0,1,1,1,1,1,1,1,1,1,1,1,1,1,1,0,1,1,0,1,0,0,0,0,1,33
"cs3V71y97kmmT9JPz88iRlGRnc",59428464,61,FALSE,302220,1,1,1,1,1,1,1,1,1,1,1,1,1,1,1,0,1,1,1,1,1,1,1,1,1,1,1,1,1,1,1,1,1,1,1,1,1,1,1,1,39
"CsBXtgbvFreFwBp4bLYL6rXCYk",4759784,766,FALSE,435078,1,1,1,1,1,1,1,1,1,1,1,1,1,1,1,0,1,1,1,1,1,1,1,1,1,1,1,1,1,1,1,1,0,1,1,1,1,1,1,1,38
"CsTIm4QKfB2fBPlBKS97AmJnRd",627710,52,FALSE,206289,1,1,1,1,1,1,1,1,1,1,1,1,1,1,1,0,1,1,1,1,1,1,1,1,1,1,1,1,1,1,0,1,1,0,0,0,1,0,0,1,33
"ct8bT0Um3JGIBVx8ZWoOCXwcCy",7789935,286,FALSE,376616,1,1,1,1,1,1,1,1,1,1,1,1,1,1,1,0,1,1,1,1,1,1,1,1,1,1,1,1,1,1,0,1,1,1,1,1,1,1,0,1,37
"cuCsqRWHDFXPZvmSIVHbw9LzsG",3616563,1242,FALSE,119845,1,1,1,1,1,1,1,1,1,1,1,1,1,1,1,0,1,1,1,1,1,1,1,1,1,1,1,1,1,1,1,1,0,1,1,1,1,0,0,0,35
"CVa0u43WLopqi55lOypUqbF1EI",226674,13,FALSE,195045,1,1,1,1,1,1,1,1,1,1,1,1,1,1,1,0,1,1,1,1,1,1,1,0,1,1,1,1,1,1,0,1,0,1,1,1,1,1,1,0,35
"cVc5xjTzgz2gwg27QiBa4ICzxf",1548179,973,FALSE,109164,1,1,1,1,1,1,1,1,1,1,1,1,1,1,1,0,1,1,1,1,1,1,1,1,1,1,1,1,1,1,1,1,0,1,1,1,1,0,0,0,35
"CxdVkJkhrKt0X3OpPjhi3xTX67",10033325,1206,FALSE,169613,1,1,1,1,1,1,1,1,1,1,1,1,1,1,1,0,1,1,1,1,1,1,1,1,1,1,1,1,1,1,0,1,1,1,1,0,0,0,0,0,33
"cZy6JwHgZceSQhyQ1KIzHVt3xC",2921903,1103,FALSE,136297,1,1,1,1,1,1,1,1,1,1,1,1,1,1,1,0,0,1,1,1,1,0,0,1,1,1,1,0,1,0,0,1,1,1,0,0,1,0,0,0,28
"D08LoI5gSALmOGkNsmSoHMVFZ7",1494665,31,FALSE,309194,1,1,1,1,1,1,1,1,1,1,1,1,1,1,1,0,1,1,1,1,1,1,1,1,1,1,1,1,1,1,1,1,1,1,1,0,0,0,0,0,34
"D1ZcuPbbp8TADHZZOBT7lnnPjJ",6019797,1240,FALSE,127244,1,1,1,1,1,1,1,1,1,1,1,1,1,1,1,0,1,1,1,1,1,1,1,1,1,1,1,1,1,1,1,1,0,1,1,0,1,0,1,1,36
"d6KfzyuhLX9Ew8tBHlkonOyguu",673592,60,FALSE,154464,1,1,1,1,1,1,1,1,1,1,1,1,1,1,1,0,1,1,1,1,1,1,1,1,1,1,1,1,1,1,0,1,0,1,1,0,1,0,0,1,34
"D6ukuTsS1lXqwmGLGdWOkCNp7b",5028890,1255,FALSE,122958,1,1,1,1,1,1,1,1,1,1,1,1,1,1,1,0,1,1,1,1,1,1,1,1,1,1,1,1,1,1,1,1,1,0,1,0,0,0,1,0,34
"d7s0S7zSbU8rMw8gRBOfAmjLiw",2485527,843,FALSE,133539,1,1,1,1,1,1,1,1,1,1,1,1,1,1,1,0,1,1,1,1,1,1,1,1,1,0,1,1,1,1,0,1,0,1,0,1,0,0,0,1,32
"d8mjAzaHeD2Uphn2aNR5nkoMVe",4788331,1255,FALSE,174814,1,1,1,1,1,1,1,1,1,1,1,1,1,1,1,0,1,1,1,1,1,1,1,1,1,1,1,1,1,1,0,1,0,1,1,0,0,0,0,0,32
"dAakWKbLkVvzsFQLvgD6zmeZZ9",4434653,1219,FALSE,158089,1,1,1,1,1,1,1,1,1,1,1,1,1,1,1,0,1,1,1,1,1,1,1,1,1,1,1,1,1,1,1,1,0,1,0,1,1,0,0,1,35
"dAKCcNFK2NJbTTvvtFCrU7ZBFw",4307856,1242,FALSE,106123,1,1,1,1,1,1,1,1,1,1,1,1,1,1,1,0,1,1,1,1,1,1,1,1,1,1,1,1,1,1,1,1,1,1,1,0,1,0,0,1,36
"dBsmKE2PMRrFEq2kmTaFFZTJug",3377880,1082,FALSE,175572,1,1,1,1,1,1,1,1,1,1,1,1,1,1,1,0,1,1,1,1,1,1,1,1,1,1,1,1,1,1,0,1,1,1,1,0,0,0,0,0,33
"dbZXy1G0ahJnGquQwuY0qBaULE",2531989,43,FALSE,292630,1,1,1,1,1,1,1,1,1,1,1,1,1,1,1,0,1,1,1,1,1,1,1,1,1,1,1,1,1,1,1,1,1,1,1,1,0,1,1,1,38
"dckVoFOJaOq0pf0XzNYc1mSz2j",2394851,276,FALSE,143164,1,1,1,1,1,1,1,1,1,1,1,1,1,1,1,0,1,1,1,1,1,1,1,1,1,1,1,1,1,1,0,1,1,0,1,0,0,0,0,0,32
"dDLY4Dorw42uCa18Khh2AEnHNk",790770,34,FALSE,329640,1,1,1,1,1,1,1,1,1,1,1,1,1,1,1,0,1,1,1,1,1,1,1,1,1,1,1,1,1,0,1,0,1,0,1,1,1,1,1,1,36
"DDTu7OPDvEj49eBvd7L5ggRVIL",3905337,1262,FALSE,132479,1,1,1,1,1,1,1,1,1,1,1,1,1,1,1,0,0,1,1,1,1,1,1,1,1,0,1,1,1,1,0,1,0,1,1,1,1,0,0,1,33
"Ddwh4eeomRK0i3NziuQts6uGEj",671215,590,FALSE,156085,1,1,1,1,1,1,1,1,1,1,1,1,1,1,1,0,1,1,1,1,1,1,1,1,1,1,1,1,1,1,0,1,1,0,0,0,0,0,0,1,32
"deWRTkqduQZ2lVORvJPH7xPPZ6",276680161,880,FALSE,155683,1,1,1,1,1,1,1,1,1,1,1,1,1,1,1,0,1,1,1,1,1,1,1,1,1,1,1,1,1,1,0,1,1,1,1,1,1,0,1,0,36
"Dezh85J4lbBFFrt9etE8YSJhaG",648380,397,FALSE,150246,1,1,1,1,1,1,1,1,1,1,1,1,1,1,1,0,1,1,1,1,1,1,1,1,1,1,1,1,1,0,1,1,1,0,1,1,1,1,1,1,37
"DgYMD8YjJX1HIA4HfTn469z7kX",698114,34,FALSE,247321,1,1,1,1,1,1,1,1,1,1,1,1,1,1,1,0,1,1,1,1,1,1,1,1,1,1,1,1,1,1,1,1,1,1,1,1,1,1,1,1,39
"DH4vEs6kCxJ1GqQmVW2hNuB5vN",1362081,125,FALSE,160601,1,1,1,1,1,1,1,1,1,1,1,0,1,1,1,0,1,1,1,1,1,1,1,1,1,1,1,1,1,0,1,1,1,1,1,1,1,0,0,1,35
"dHv6MkD8eeKzQYWMx6EftDNfKY",2208133,717,FALSE,122117,1,1,1,1,1,1,1,1,1,1,1,1,1,1,1,0,1,1,1,1,1,1,1,1,0,1,1,1,1,1,0,1,0,0,0,1,1,1,0,0,32
"diyHhFeMOILdfMnmWmGAQkyF79",2821426,590,FALSE,177360,1,1,1,1,1,1,1,1,1,1,1,1,1,1,1,0,1,1,1,1,1,1,1,1,1,1,1,1,1,1,1,1,1,0,1,1,1,0,1,0,36
"dkvdR8XdsesvdAzgqJGRxnpWt5",2255743,54,FALSE,295714,1,1,1,1,1,1,1,1,1,1,1,1,1,1,1,0,1,1,1,1,1,1,1,1,1,0,1,1,1,1,1,1,0,1,1,1,1,1,1,1,37
"DlhsfLIJeZO1JbfvLccXJ2Y5mM",3260538,1147,FALSE,103565,1,1,1,1,1,1,1,1,1,1,1,1,1,1,1,0,1,1,1,1,1,1,1,1,1,1,1,1,1,1,1,1,1,1,1,0,1,0,0,1,36
"DmDaKGRuBlssE6qUu1mYhWVct1",1887258,1030,FALSE,134349,1,1,1,1,1,1,1,1,1,1,1,1,1,1,1,0,1,1,1,1,1,1,1,1,1,1,1,1,1,1,0,1,0,1,1,0,1,0,0,1,34
"DMDKLe2LNPEyMKeVA7PPZebqxt",852106,404,FALSE,93024,1,1,1,1,1,1,1,1,1,1,1,1,1,1,1,0,1,1,1,1,1,1,1,1,0,1,1,1,1,1,0,1,1,1,1,0,1,0,0,0,33
"DmWosOxhbNqQW3bRhhhkZYFmYJ",4301414,579,FALSE,187689,1,1,1,1,1,1,1,1,1,1,1,1,1,1,1,0,1,1,1,1,1,1,1,1,1,0,1,1,1,0,1,1,1,1,1,1,1,0,1,1,36
"DohTFqOcWv69yidf1RxoEm202B",331536,27,FALSE,174106,1,1,1,1,1,1,1,1,1,1,1,1,1,1,1,0,1,1,1,1,1,1,1,1,1,1,1,1,1,1,1,1,1,1,1,1,1,0,1,1,38
"dojvUw9vt1QyFKVrUaPPPRQi3O",712127,89,FALSE,165087,1,1,1,1,1,1,1,1,1,1,1,1,1,1,1,0,1,1,1,1,1,1,1,1,1,1,1,1,1,1,1,0,1,1,1,1,0,0,0,1,35
"DpJ1Ug9CDn6rKKHOJxmBZDOAnt",13803762,676,FALSE,115661,1,1,1,1,1,1,1,1,1,1,1,1,1,1,1,0,1,1,1,1,1,1,1,1,1,1,1,1,1,1,1,1,1,1,1,0,1,0,0,1,36
"DpjfEG3PSFzXt6BYF1kt78jJvk",1491883,88,FALSE,241842,1,1,1,1,1,1,1,1,1,1,1,1,1,1,1,0,1,1,1,1,1,1,1,1,1,1,1,1,1,1,1,1,1,1,1,1,0,0,1,1,37
"dpN1b65lmlUxZKsV2JMn1Nx9Rp",7396146,653,FALSE,148546,1,1,1,1,1,1,1,1,1,1,1,1,1,1,1,0,1,1,1,1,1,1,1,1,1,1,1,1,1,1,0,1,0,1,1,0,0,0,0,1,33
"DSXuxqWsQT0Tn56zlU7rQKlKx6",973062,42,FALSE,169808,1,1,1,1,1,1,1,1,1,1,1,1,1,1,1,0,1,1,1,1,1,1,1,1,1,1,1,1,1,0,1,1,0,1,1,1,1,0,0,0,34
"DTpCUsaFqefHyAA6M4KLGTR6Cx",6310840,1257,FALSE,403809,1,1,1,1,1,1,1,1,1,1,1,1,1,1,1,0,1,1,1,1,1,1,1,1,1,1,0,1,1,1,0,1,1,1,1,0,1,0,1,1,35
"dV5CKOdw1ji7SVd59CTcNgSqiL",4811501,613,FALSE,394336,1,1,1,1,1,1,1,1,1,1,1,1,1,1,1,0,1,1,1,1,1,0,1,1,1,1,0,1,1,0,1,0,1,0,1,1,0,1,1,1,33
"DVfUWY2jtMsWErgQa5dRcfQ4cZ",185832,13,FALSE,157680,1,1,1,1,1,1,1,1,1,1,1,1,1,1,1,0,1,1,1,1,1,1,1,1,1,1,1,1,1,1,1,1,1,0,1,1,1,0,0,0,35
"Dx3OZrDGGO2x8FlunKXHXjfK7o",637167,367,FALSE,121369,1,1,1,1,1,1,1,1,1,1,1,1,1,1,1,0,1,1,1,1,1,1,1,1,1,1,1,1,1,1,0,1,0,1,1,0,0,0,0,1,33
"dxnLMJtS36NdoNXucJnDx88PVj",793362,52,FALSE,221892,1,1,1,1,1,1,1,1,1,1,1,1,1,1,1,0,1,1,1,1,1,1,1,1,1,1,1,1,1,1,1,1,0,1,1,1,1,1,1,1,38
"dY4v3dDAlYlKGQc6rXkICcX4ka",3444672,1188,FALSE,133203,1,1,1,1,1,1,1,1,1,1,1,1,1,1,1,0,1,1,1,1,1,1,1,1,1,1,1,1,1,1,1,1,0,0,1,1,0,1,0,0,34
"DyNCNmbcrHbhl4O5Fyh51IcOMQ",353576457,1226,FALSE,168028,1,1,1,1,1,1,1,1,1,1,1,1,1,1,1,0,1,1,1,1,1,1,1,1,1,1,1,1,1,1,1,1,0,1,1,0,0,0,0,1,34
"DzEMfNSOqExwMIcUCidjVpODnD",755110,20,FALSE,347259,1,1,1,1,1,1,1,1,1,1,1,1,1,1,1,0,1,1,1,1,1,1,1,1,0,1,1,1,1,1,1,1,1,1,0,1,1,1,1,1,37
"DZnnkqT3k6MixD4ZsRRCQVBhfJ",2673222,860,FALSE,126528,1,1,1,1,1,1,1,1,1,1,1,1,1,1,1,0,1,1,1,1,1,1,1,1,1,1,1,1,1,1,0,1,1,0,0,1,0,1,0,0,33
"dzqoNgTEH0d7SEAtX51vX5Uodr",1510332,684,FALSE,153906,1,1,1,1,1,1,1,1,1,1,1,1,1,1,1,0,1,1,1,1,1,1,1,1,0,1,1,1,1,0,0,1,1,0,0,0,0,0,0,0,29
"e0Pn0uNIlynr0PnqktP1Xj13MT",2233047,520,FALSE,80348,1,1,1,1,1,1,1,1,1,1,1,1,1,1,1,0,1,1,1,1,1,1,1,1,1,1,1,1,1,1,1,1,0,1,0,1,1,0,1,1,36
"e1IjFhSnEhfjaIg72vyFQIypfp",3146633,859,FALSE,220038,1,1,1,1,1,1,1,1,1,1,1,1,1,1,1,0,1,1,1,1,1,1,1,1,1,1,1,1,1,1,1,1,1,1,1,1,0,1,1,1,38
"e2BQVWknXk7sdqzICGg8jjYJTn",1639919,720,FALSE,132966,1,1,1,1,1,1,1,1,1,1,1,1,1,1,1,0,1,1,1,1,1,1,1,1,1,1,0,1,1,0,0,1,0,1,1,0,0,1,0,0,31
"E2zl8v9d1qV0xb6TkrWvrTuo3L",3450681,779,FALSE,227118,1,1,1,1,1,1,1,1,1,1,1,1,1,1,1,0,1,1,1,1,1,1,1,1,1,1,1,1,1,0,1,1,1,1,1,0,0,0,0,0,33
"E3MkUV6ZYaUZqTdGQ6jC7Bz9NE",752654,369,FALSE,160119,1,1,1,1,1,1,1,1,1,1,1,1,1,1,0,0,1,1,1,1,1,1,1,1,1,1,1,1,1,1,1,1,0,1,1,1,0,0,1,1,35
"E7dgKktACXUEJnQ4b8F3ufMLj5",670580,124,FALSE,165662,1,1,1,1,1,1,1,1,1,1,1,1,1,1,1,0,1,1,1,1,1,1,1,1,1,1,1,1,1,1,1,1,1,1,1,1,0,0,0,1,36
"ebfmRm6tNQ0TBq9G7bhjtvqqB9",1146344,620,FALSE,248281,1,1,1,1,1,1,1,1,1,1,1,1,1,1,1,0,1,1,1,1,1,1,1,1,1,1,1,1,1,1,1,1,1,1,1,1,1,1,1,1,39
"EBlmd0ImHgnofMd3X7cKeO2WRb",1873062,992,FALSE,126103,1,1,1,1,1,1,1,1,1,1,1,1,1,1,1,0,1,1,1,1,1,1,1,1,1,1,1,1,1,0,1,1,1,1,1,0,0,1,0,0,34
"ECdgot6Pw1aXMuKS6HmdXi3IX4",6225052,1136,FALSE,233132,1,1,1,1,1,1,1,1,1,1,1,1,1,1,1,0,1,1,1,1,1,1,1,1,1,1,1,1,1,0,0,1,1,0,0,1,1,0,0,1,33
"eCOTyMJFl1FS4r6FWRkQ89OWzB",7596550,1255,FALSE,144326,1,1,1,1,1,1,1,1,1,1,1,1,1,1,1,0,1,1,1,1,1,1,1,1,1,1,1,1,1,1,1,1,1,1,1,0,0,0,0,1,35
"ecVg6gYswBSVtfAi4nLKTf4zdt",3253908,1200,FALSE,124007,1,1,1,1,1,1,1,1,1,1,1,1,1,1,1,0,1,1,1,1,1,1,1,1,1,1,1,1,1,1,0,1,1,1,0,0,0,0,1,0,33
"EDGBzIXxrSXlvTdsqPL16dn3KK",1693469,13,FALSE,281833,1,1,1,1,1,1,1,1,1,1,1,1,1,1,1,0,1,1,1,1,1,1,1,1,1,1,1,1,1,1,0,1,1,1,1,1,1,1,0,1,37
"EegdMwlGFQANzth1gZYGuKbdAJ",2818831,1024,FALSE,252086,1,1,1,1,1,1,1,1,1,1,1,1,1,1,1,0,1,1,1,1,1,1,1,1,1,1,1,1,1,1,1,1,1,1,1,1,1,1,1,1,39
"eEii00Whpi1T2X2JZiXAv22gBn",12743649,1089,FALSE,145740,1,1,1,1,1,1,1,1,1,1,1,1,1,1,1,0,1,1,1,1,1,1,1,1,1,1,1,1,1,1,1,1,1,1,1,0,1,1,0,0,36
"eEPFMYtX12jekZbroukDIJMLgc",1491529,154,FALSE,483042,1,1,1,1,1,1,1,1,0,1,0,0,0,1,1,0,0,1,0,0,1,1,0,0,1,0,0,0,0,1,0,1,1,1,0,1,0,1,1,1,23
"ef7BZ2K6rF6Wwz693DFimU58k8",3921582,507,FALSE,176163,1,1,1,1,1,1,1,1,1,1,1,1,1,1,1,0,1,1,1,1,1,1,1,1,1,1,1,1,1,1,0,1,1,1,1,0,0,0,0,0,33
"EfrFEh7bN4IdpXMdIlSnmP9QUi",3527822,1255,FALSE,96589,1,1,1,1,1,1,1,1,1,1,1,1,1,1,1,0,1,1,1,1,1,1,1,1,1,1,1,1,1,1,1,1,1,1,1,0,1,0,1,1,37
"eGks7IhTp4q8k3EDQNvBbUKFGN",280449,43,FALSE,108123,1,1,1,1,1,1,1,1,1,1,1,1,1,1,1,0,1,1,1,1,1,1,1,1,1,1,1,1,1,1,1,1,1,1,0,0,0,0,1,1,35
"eHj352zN2Hlc8kiFaGSSZVhUam",225278,13,FALSE,167939,1,1,1,1,1,1,1,1,1,1,1,1,1,1,1,0,1,1,1,1,1,1,1,1,1,1,1,1,1,1,1,1,1,1,1,1,1,0,0,0,36
"Ei5NzU1ufbO3NC4Tf15PvVXiot",4683716,1203,FALSE,390800,1,1,1,1,1,1,1,1,1,1,1,1,1,1,1,0,1,1,1,1,1,1,1,1,1,1,1,0,1,0,0,1,0,0,1,1,1,0,0,0,31
"EiaoF7A2aKkf67KksRmojBdiNT",2362779,239,FALSE,188406,1,1,1,1,1,1,1,1,1,1,1,1,1,1,1,0,1,1,1,1,1,1,1,1,1,1,1,1,1,1,0,1,1,1,1,0,1,0,1,1,36
"eIL8FFCxQoYkVmUdVQUfZYKTTG",458702,26,FALSE,222428,1,1,1,1,1,1,1,1,1,1,1,1,1,1,1,0,1,1,1,1,1,1,1,1,1,1,1,1,1,1,1,1,1,1,1,1,1,1,1,1,39
"EJkF8lP21gRDm2LpKhPTdJL2mh",191510,13,FALSE,155572,1,1,1,1,1,1,1,1,1,1,1,1,1,1,1,0,1,1,1,1,1,1,1,1,1,1,1,0,1,1,1,1,0,0,0,0,1,0,0,0,31
"eKEPc9mE2DC1siy0ZU063FRUZg",2476224,732,FALSE,156803,1,1,1,1,1,1,1,1,1,1,1,1,1,1,1,0,1,1,1,1,1,1,1,1,1,0,1,1,1,1,1,1,0,1,1,0,1,0,0,1,34
"eleDhoIMox2gJzspiv1paR3Dhi",731161,28,FALSE,184638,1,1,1,1,1,1,1,1,1,1,1,1,1,1,1,0,1,1,1,1,1,1,1,1,1,1,1,1,1,1,1,1,1,1,1,0,0,0,1,1,36
"eOKJmdvH2iZTajpTCwO6pWr9Vw",249535,14,FALSE,226830,1,1,1,1,1,1,1,1,1,1,1,1,1,1,1,0,1,1,1,1,1,1,1,1,1,0,1,1,0,1,1,1,1,1,0,1,0,1,1,1,35
"eQz6YFE6LhNRSZrpYeP32V5ZaF",7569480,1229,FALSE,174882,1,1,1,1,1,1,1,1,1,1,1,1,1,1,1,0,1,1,1,1,1,1,1,1,1,1,1,1,1,1,1,1,0,0,1,0,0,0,0,0,32
"ERFFdnCvMqdE4LJDd6guXngMia",1234821,110,FALSE,219869,1,1,1,1,1,1,1,1,0,1,1,1,1,1,1,0,1,1,1,1,1,1,1,1,1,1,1,1,1,1,1,1,0,0,1,1,1,0,1,1,35
"eRmaTZylmcTooxaIpldw55ug1G",3324886,1255,FALSE,122339,1,1,1,1,1,1,1,1,1,1,1,1,1,1,1,0,1,1,1,1,1,1,1,0,1,1,0,1,1,0,1,1,0,1,1,0,0,0,0,1,31
"eTKBwTEeorR3RyMgJK1qN4zrmQ",380318,36,FALSE,93426,1,1,1,1,1,1,1,1,1,1,1,1,1,0,1,0,0,1,1,0,0,0,0,0,0,1,0,0,0,0,0,0,1,1,0,0,0,1,0,0,20
"ETr4TGxge2A3BiJOR4EvNpqcpU",1402991,368,FALSE,130283,1,1,1,1,1,1,1,1,1,1,1,1,1,1,1,0,1,1,1,1,1,1,1,1,0,1,1,1,1,1,1,1,0,1,1,0,1,1,1,0,35
"eTSoGxCUpQQPKWiLlyQFNFl8Ql",61375734,578,FALSE,119737,1,1,1,1,1,1,1,1,1,1,1,1,1,1,0,0,1,1,1,1,1,0,1,1,0,1,0,1,1,0,0,0,1,0,0,1,1,0,0,0,27
"EuaGqVM5FK6hg1fD0otSM3n5O5",2010532,253,FALSE,181823,1,1,1,1,1,1,1,1,1,1,1,1,1,1,1,0,1,1,1,1,1,1,1,1,0,1,1,1,1,1,0,1,1,0,1,0,0,0,0,0,31
"evRfGzGmtbpimfHzxAl91gAYu4",3133460,1046,FALSE,195395,1,1,1,1,1,1,1,1,1,1,1,1,1,1,1,0,1,1,1,1,1,1,1,1,1,1,1,1,1,1,1,1,0,1,0,0,0,1,1,0,34
"EwqDzxd2DvAPc7env6ogXvSvCZ",2061876,158,FALSE,163320,1,1,1,1,1,1,1,1,1,1,1,1,1,1,1,0,1,1,1,1,1,1,1,1,1,1,1,1,1,0,1,1,1,1,1,1,1,1,1,1,38
"ExFkoX66tzQEKdlBgFon3Cn0gk",2760131,750,FALSE,186946,1,1,1,1,1,1,1,1,1,1,1,1,1,1,1,0,1,1,1,1,1,1,1,1,1,1,1,1,1,0,0,1,1,0,1,0,1,0,0,0,32
"eZhRssL6CIRbSiCJasEcFHJlTV",1334966,59,FALSE,269612,1,1,1,1,1,1,1,1,1,1,1,1,1,1,1,0,1,1,1,1,1,1,1,1,1,1,1,1,1,1,1,1,0,1,0,0,0,1,1,0,34
"EZvknkukeV63yRLcgpOTC11mCn",7661896,1134,FALSE,140435,1,1,1,1,1,1,1,1,1,1,1,1,1,1,1,0,1,1,1,1,1,1,1,1,1,1,1,1,1,1,0,0,0,1,0,0,1,0,0,1,32
"F0RaN4iAJQQ4us0LYX4xg13nHp",6783434,1208,FALSE,142145,1,1,1,1,1,1,1,1,1,1,1,1,1,1,1,0,1,1,1,1,1,1,1,1,1,1,1,1,1,1,0,1,0,1,1,0,0,0,1,1,34
"F1y19Pf1PsMvCpAF3ni2gYpcFG",3435480,1172,FALSE,224873,1,1,1,1,1,1,1,1,1,1,1,1,1,1,1,0,0,1,1,1,1,1,1,0,0,0,0,0,0,0,1,1,0,1,0,1,0,0,0,0,25
"f3v4etl3VZrlDFnbujb1cDhPt9",926865,21,FALSE,139801,1,1,1,1,1,1,1,1,1,1,1,1,1,1,1,0,1,1,1,1,1,1,1,1,1,1,1,1,1,1,0,1,0,1,1,1,0,0,1,1,35
"f7awueUNrktSNQjArGAEldSy5M",2282368,1041,FALSE,153871,1,1,1,1,1,1,1,1,1,1,1,1,1,1,1,0,1,1,1,1,1,1,1,1,1,0,1,0,1,0,0,1,0,0,0,0,0,0,0,0,27
"f8FkoMcRZQS6hAYXRj9b8P4QNo",5722128,1256,FALSE,147884,1,1,1,1,1,1,1,1,1,1,1,1,1,1,1,0,1,1,1,1,1,1,1,1,1,1,1,1,1,1,0,1,1,1,1,0,0,0,0,1,34
"F9xzpMjjRYDrNQrIVYlwNXRrda",455436,13,FALSE,197306,1,1,1,1,1,1,1,1,1,1,1,1,1,1,1,0,1,1,1,1,1,1,1,1,0,1,1,1,0,0,0,0,1,1,1,1,1,1,1,1,34
"FbIsAjHpfnh60lrWi4X6WJgdK7",1757254,513,FALSE,120760,1,1,1,1,1,1,1,1,1,1,1,1,1,1,1,0,1,1,1,1,1,1,1,1,1,1,1,1,1,1,1,1,0,1,1,1,1,0,1,0,36
"fCoyBvMrJp9y5debKwSgRJnRFI",3884254,832,FALSE,142957,1,1,1,1,1,1,1,1,1,1,1,1,1,1,1,0,1,1,1,1,1,1,1,1,1,1,1,1,1,1,1,1,1,1,1,0,1,0,0,1,36
"fczHLGcqZryj8z04vecurWDNg4",1096116,68,FALSE,166451,1,1,1,1,1,1,1,1,1,1,1,1,1,1,1,0,1,1,1,1,1,1,1,1,1,1,1,1,1,0,1,1,1,1,1,0,1,1,0,1,36
"fdgl5qZZrMSBxANWDh4wWw593w",20905432,1237,FALSE,425106,1,1,1,1,1,1,1,1,1,1,1,1,1,1,0,0,1,1,1,1,1,1,1,1,1,1,1,1,1,1,1,1,0,1,1,1,1,0,1,1,36
"fdOHhxYbwutZqfjulXgILxDCkK",15426676,579,FALSE,220263,1,1,1,1,1,1,1,1,1,1,1,1,1,1,1,0,1,1,1,1,1,1,1,1,1,1,1,1,1,1,1,1,1,1,1,1,1,1,1,1,39
"fDxcYZFyt8Lsi7MaYtnJfXktWv",2345301,785,FALSE,186105,1,1,1,1,1,1,1,1,1,1,1,1,1,1,1,0,1,1,1,1,1,1,1,1,1,1,1,1,1,1,1,1,1,1,1,1,1,1,1,1,39
"FeuM7Ziht5OB9EIPJP6QKgAxx6",5488697,867,FALSE,187874,1,1,1,1,1,1,1,1,1,1,1,1,1,1,1,0,1,1,1,1,1,1,1,1,1,1,1,1,1,1,1,1,1,1,1,1,1,0,1,1,38
"fFMsosvTSvPnVAcYuCe8ammmD5",2401860,121,FALSE,319426,1,1,1,1,1,1,1,1,1,1,1,1,1,1,1,0,1,1,1,1,1,1,1,1,1,1,1,1,1,0,1,1,1,0,1,1,1,1,1,1,37
"fGVnaUpVIWxjmRau2WJeSlHi55",3685847,1115,FALSE,127462,1,1,1,1,1,1,1,1,1,1,1,1,1,1,1,0,1,1,1,1,1,1,1,1,1,1,1,1,1,1,0,1,1,1,1,1,1,0,0,0,35
"fi9cashkyYE12Q5yMVUS0b7cg9",3699406,866,FALSE,158056,1,1,1,1,1,1,1,1,1,1,1,1,1,1,1,0,1,1,1,1,1,1,1,1,1,1,1,1,1,1,0,1,1,1,1,0,1,0,0,0,34
"fjtTnZzbXBtkdcDAPnQOnYWtAk",4703353,1255,FALSE,229598,1,1,1,1,1,1,1,1,1,1,1,1,1,1,1,0,1,1,1,1,1,1,1,1,1,1,1,1,1,1,1,1,1,1,1,0,0,0,1,1,36
"FL0wOrqA16ydUL4870ezKNwjbK",6241642,826,FALSE,158319,1,1,1,1,1,1,1,1,1,1,1,1,1,1,1,0,1,1,1,1,1,1,1,1,1,1,0,1,1,1,1,0,1,0,1,0,0,0,1,0,32
"FlXLsj3n8Yf0ZSQnhomuahngvo",5076221,587,FALSE,251396,1,1,1,1,1,1,1,1,1,1,1,1,1,1,1,0,1,1,1,1,1,1,1,1,1,1,1,1,1,1,0,1,0,1,1,0,1,0,0,1,34
"FM116aB9cJrW5oSpdCJQffTus7",2419355,1024,FALSE,157246,1,1,1,1,1,1,1,1,1,1,1,1,1,1,1,0,1,1,1,1,1,1,1,1,1,0,1,1,1,0,1,1,0,1,0,0,0,0,1,1,32
"fmfMCPeWNiYfv5epzmMO1JwVdE",3572265,679,FALSE,126709,1,1,1,1,1,1,1,1,1,1,1,1,1,1,1,0,1,1,1,1,1,1,1,1,1,1,1,1,1,1,0,1,1,1,1,1,0,0,0,0,34
"FMvYCzGtYf1poSYhUXFi5UskxC",3714073,1232,FALSE,134708,1,1,1,1,1,1,1,1,1,1,0,1,1,1,1,0,1,1,1,1,1,0,1,1,1,0,0,0,1,0,0,0,0,1,1,0,0,0,0,1,26
"FmYdJLevUrFZD5CNvbYnG4gceS",2209494,195,FALSE,172942,1,1,1,1,1,1,1,1,1,1,1,1,1,1,1,0,1,1,1,1,1,1,1,1,1,1,1,1,1,1,0,1,0,1,0,0,0,0,0,0,31
"FoDKm6hIstrMqjaNyfkDeo9AdB",3454863,66,FALSE,215292,1,1,1,1,1,1,1,1,1,1,1,1,1,1,1,0,1,1,0,1,1,1,1,1,1,1,1,1,1,1,0,1,0,0,1,0,0,0,1,1,32
"foumkB3edhhJwBSdlhGHcyWCwV",3980443,827,FALSE,233939,1,1,1,1,1,1,1,1,1,1,1,1,1,1,1,0,1,1,1,1,1,1,1,1,0,1,0,1,1,0,0,0,0,1,0,0,1,1,0,0,29
"fPAgoVh4VKhjcsZorjWXIAzH5w",506402,79,FALSE,146128,1,1,1,1,1,1,1,1,1,1,1,1,1,1,1,0,1,1,1,1,1,1,0,1,0,1,0,1,1,1,1,1,1,1,0,0,1,0,0,0,31
"FptE3VHUwWqRL1Yx9XzZkgp3Zp",553207,590,FALSE,129861,1,1,1,1,1,1,1,1,1,1,1,1,1,1,1,0,1,1,1,1,1,1,1,1,1,1,1,1,1,1,1,1,0,1,1,1,0,0,0,1,35
"FQ0LBUGSIQZb0FTTwlwQUlOXHV",5798646,1161,FALSE,201650,1,1,1,1,1,1,1,1,1,1,1,1,1,1,1,0,1,1,1,1,1,1,1,1,1,1,1,1,1,1,1,1,1,1,1,1,0,0,1,1,37
"fq2YxqHVW3ASnHGv5TQUDY9B6r",214971,13,FALSE,159068,1,1,1,1,1,1,1,1,1,1,1,1,1,1,1,0,1,1,1,1,1,1,1,1,1,1,1,1,1,1,1,1,1,1,1,1,1,0,0,1,37
"FqOeJUgAQyzZ6hLhwLrHcBIJAk",837989,418,FALSE,119360,1,1,1,1,1,1,1,1,1,1,1,1,1,1,1,0,1,1,1,1,1,1,1,1,1,1,1,1,1,1,1,1,1,1,1,0,0,0,0,0,34
"frZ2bwzNgSzRBcgQQbgiSmW6kd",17155830,154,FALSE,210570,1,1,1,1,1,1,1,1,1,1,1,1,1,1,1,0,1,1,1,1,1,1,1,1,1,1,1,1,1,1,1,1,1,1,1,1,1,1,1,1,39
"FST4A81Yw8sYDZnl0TouxDCbAA",2034774,485,FALSE,284158,1,1,1,1,1,1,1,1,1,1,1,1,1,1,1,0,1,1,1,1,1,1,1,1,0,0,1,1,0,1,1,1,0,1,1,1,1,1,1,1,35
"ftJ4ta4cSFcQPmQOQwI4xOR4G3",1754320,626,FALSE,236431,1,1,1,1,1,1,1,1,1,1,1,1,1,1,1,0,1,1,1,1,1,1,1,1,1,1,1,1,1,1,0,1,1,0,1,0,1,0,0,0,33
"fTOQg95n47LbfSJ8fyyOMftSKa",5395004,1224,FALSE,142816,1,1,1,1,1,1,1,1,1,1,1,1,1,1,1,0,1,1,1,1,1,1,1,1,1,1,1,1,1,1,1,1,1,1,1,1,1,0,0,1,37
"ftPwAEiIq1Tn0taF8TqhP4CTqL",6066859,1178,FALSE,278216,1,1,1,1,1,1,1,1,1,1,1,1,1,1,1,0,1,1,1,1,1,1,1,1,1,1,1,1,1,1,1,1,1,1,1,1,1,1,1,1,39
"FUIglH8GQnZaeh4VgJdqW7Bhav",3586617,1124,FALSE,163016,1,1,1,1,1,1,1,1,1,1,1,1,1,1,1,0,1,1,1,1,1,1,1,1,1,1,1,1,1,1,1,1,1,1,1,0,0,0,0,1,35
"FUxvommz2eMhwg2lXDWTK2wRKg",1363865,381,FALSE,260837,1,1,1,1,1,1,1,1,1,1,1,1,1,1,1,0,1,1,1,1,1,1,1,1,1,1,1,1,1,1,1,1,1,1,1,1,1,1,1,0,38
"Fwbyjqtflcbx1i9TGG1rrRMfrK",3172874,1060,FALSE,130172,1,1,1,1,1,1,1,1,1,1,1,1,1,1,1,0,1,1,1,1,1,1,1,1,1,1,1,1,1,1,1,1,1,1,1,1,0,0,1,1,37
"FxOtd3CpPxwV4Imx3ANVueTMDL",102996155,1243,FALSE,215253,1,1,1,1,1,1,1,1,1,1,1,1,1,1,1,0,1,1,1,1,1,1,1,1,1,1,1,1,1,1,0,1,1,1,0,0,0,0,0,1,33
"fYr9ejYvD7KEUUbg2MPmo6UWBb",3440358,766,FALSE,238884,1,1,1,1,1,1,1,1,1,1,1,1,1,1,1,0,1,1,1,1,1,1,1,1,1,1,1,1,1,0,1,1,1,1,1,0,1,0,1,1,36
"fZLiwcpUx8PVfglW0MkZQ56eem",1967915,585,FALSE,193079,1,1,1,1,1,1,1,1,1,1,1,0,1,1,1,0,1,1,1,1,1,1,0,1,1,1,1,1,1,1,1,0,0,1,0,1,1,0,0,1,32
"FzOfnpvHaAMjLOkeAqBhk2xJT4",3472446,739,FALSE,204638,1,1,1,1,1,1,1,1,1,1,1,1,1,1,1,0,1,1,1,1,1,1,1,1,1,1,1,1,1,1,1,1,1,1,1,1,1,1,1,1,39
"g0zKJKnvvjN2O9Q3ALE89I4x5i",2246834,1039,FALSE,132930,1,1,1,1,1,1,1,1,1,1,1,1,1,1,1,0,1,1,1,1,1,1,1,1,1,1,1,1,1,1,0,1,1,1,0,0,0,0,0,0,32
"G4SKWWOzux3XMBHmcoj7cXSuxr",325023,26,FALSE,184457,1,1,1,1,1,1,1,1,1,1,1,1,1,1,1,0,1,1,1,1,1,1,1,1,1,1,1,1,1,1,1,1,0,0,1,1,1,1,1,1,37
"G4SxKx5YTNUhXJ2Sh9Wzz8kF3n",2218919,13,FALSE,499165,1,1,1,1,1,1,1,1,1,1,1,1,1,1,1,0,1,1,1,1,1,1,1,1,1,0,1,1,1,0,1,1,1,1,1,1,1,1,1,1,37
"g5DtufOhpy4aBxhAZv4wOVd83C",5658502,1099,FALSE,277147,1,1,1,1,1,1,1,1,1,1,1,1,1,1,1,0,1,1,1,1,1,1,1,1,1,1,1,1,1,1,1,1,1,1,1,1,1,1,1,1,39
"G5RYNpYfhnIAGSqWrNwLtNhgza",5450453,1256,FALSE,404094,1,1,1,1,1,1,1,1,1,1,1,1,1,1,1,0,1,1,1,1,1,1,1,1,1,1,0,1,1,1,1,1,1,1,1,1,0,1,1,1,37
"g6BLT8YOk8QSYJeWMvxmqRuP5l",249649,18,FALSE,223777,1,1,1,1,1,1,1,1,1,1,1,1,1,1,1,0,1,1,1,1,1,1,1,1,1,1,1,1,1,1,1,1,0,1,1,1,1,1,1,1,38
"g7PaxGhTv8ABYdFu2c3jfa65yc",3208416,1095,FALSE,119489,1,1,1,1,1,1,1,1,1,1,1,1,1,1,1,0,1,1,1,1,1,1,1,1,1,1,1,1,1,1,1,1,1,1,1,1,1,0,0,1,37
"Ga9xTGxcHr3RyguETOjnXU43i9",1388115,88,FALSE,148370,1,1,1,1,1,1,1,1,1,1,1,1,1,1,1,0,1,1,1,1,1,1,1,1,1,1,1,1,1,1,1,1,1,1,1,1,1,1,0,1,38
"GAD8jKgDiKpXp2EsEW02lba1Rc",597111,92,FALSE,124239,1,1,1,1,1,1,1,1,1,1,1,1,1,1,1,0,1,1,1,1,1,1,1,1,1,1,1,1,1,1,0,1,1,1,0,0,0,0,0,0,32
"gbxXNf6ruFx3yjbtMUcrtiqZQ9",2401989,179,FALSE,399732,1,1,1,1,1,1,1,1,1,1,1,1,1,1,1,0,1,1,1,1,1,1,1,1,1,1,0,1,1,1,1,1,0,0,1,1,0,0,0,0,32
"gCWSpXbkxOlT4iGD2DlAJ8QlfS",2648923,152,FALSE,241345,1,1,1,1,1,1,0,1,1,1,1,1,1,1,1,0,1,1,1,1,1,1,1,1,1,1,1,1,1,1,1,1,1,0,1,1,0,1,1,1,36
"GFajfPHQkQhq53gi8i0m38oHV2",1201877,663,FALSE,202159,1,1,1,1,1,1,1,1,1,1,1,1,1,1,1,0,1,1,1,1,1,1,1,1,0,1,1,1,1,0,0,0,1,0,1,0,0,0,0,1,30
"gfnBhWq3YmaA8HbjyrSpzcpZjG",6774780,622,FALSE,253319,1,1,1,1,1,1,1,1,1,1,1,1,1,1,1,0,1,1,1,1,1,1,1,1,1,1,1,1,1,1,1,1,0,1,1,1,1,0,0,1,36
"GFWv7nBJ56e3V4Faa04UPqWnCV",5404107,1100,FALSE,152343,1,1,1,1,1,1,1,1,1,1,1,1,1,1,1,0,1,1,1,1,1,1,1,1,1,1,1,1,1,1,1,1,1,1,1,1,1,0,1,1,38
"GgXSGslxXh29W7iwgPLRIb3FBX",2706396,493,FALSE,281317,1,1,1,1,1,1,0,1,1,1,1,1,1,1,1,0,1,1,1,1,1,1,1,1,0,1,1,0,1,0,1,1,1,0,1,0,1,1,0,0,31
"gh3SYV1huEYVPNVvuBTNgQTnDo",9241965,592,FALSE,204379,1,1,1,1,1,1,1,1,0,1,1,1,1,1,1,0,1,1,1,1,1,1,1,1,1,1,1,1,1,1,0,1,0,0,1,0,1,0,0,1,32
"GINpFRn3rCrvpPEsz7p1OBYBcZ",1861885,194,FALSE,123100,1,1,1,1,1,1,1,1,1,1,1,1,1,1,1,0,1,1,1,1,1,1,1,1,1,1,1,1,1,1,1,1,1,1,1,0,0,0,0,1,35
"gKscdQH1DtVhP3H8uNhvddvVzi",216025,13,FALSE,161915,1,1,1,1,1,1,1,1,1,1,1,1,1,1,1,0,1,1,1,1,1,1,1,1,1,1,1,1,1,1,1,0,1,0,1,0,0,1,0,0,33
"gnepj9g5sqOu7VwfF117AYROl8",3195865,1247,FALSE,150987,1,1,1,1,1,1,1,1,1,1,1,1,1,1,1,0,1,1,1,1,1,1,1,1,0,1,1,1,1,1,1,1,1,1,0,0,0,1,1,0,34
"GNMFsO7EtFIppiEBH1xdFjuOIn",719724,48,FALSE,144744,1,1,1,1,0,1,1,1,1,1,1,1,1,1,1,0,1,1,1,1,1,1,1,0,1,1,1,1,1,1,0,1,1,0,1,0,0,0,0,0,30
"GohjdLkJMcrh2aId3tIfRgoVOc",8247186,1225,FALSE,258696,1,1,1,1,1,1,1,1,1,1,1,1,1,1,1,0,1,1,1,1,1,1,1,1,1,1,1,1,1,0,0,1,1,0,0,0,1,0,0,1,32
"GP3UPsOTnyA49EEF0PaBgBQYvt",529702,13,FALSE,111948,1,1,1,1,1,1,1,1,1,1,1,1,1,1,1,0,1,1,1,1,1,1,1,1,1,1,1,1,1,1,1,1,1,1,1,0,1,1,1,1,38
"GqJPAjh3eLBJqyfmx0yz9arIot",4815198,1265,FALSE,240548,1,1,1,1,1,1,1,1,1,1,1,1,1,1,1,0,1,1,1,1,1,1,1,1,1,1,1,1,1,1,1,1,1,1,1,1,1,1,0,1,38
"GTvN3N3y7Wv9tPwt4ZRROIhLAp",306800,21,FALSE,112838,1,1,1,1,1,1,1,1,1,1,1,1,1,1,1,0,1,1,1,1,1,1,1,1,1,1,1,1,1,1,1,1,0,1,1,1,1,1,1,1,38
"gY6qXF9uvTh4pZ4W0xiBwAUrnA",3778139,1195,FALSE,248324,1,1,1,1,1,1,1,1,1,1,1,1,1,1,1,0,1,1,1,1,1,1,1,1,1,1,1,1,1,1,1,1,1,1,1,1,1,1,1,1,39
"GZw2kibaBgCnhdwYw8fGpsGF2o",6297076,886,FALSE,558529,1,1,1,1,1,1,1,1,1,1,1,1,1,1,1,0,1,1,1,0,1,1,0,0,0,1,1,1,1,0,1,0,1,0,1,1,0,0,0,0,28
"H0RD6MGLaurVZezd7QxB5xCYeN",7081112,1032,FALSE,227889,1,1,1,1,1,1,1,1,1,1,1,1,1,1,1,0,1,1,1,1,0,1,1,1,1,1,1,1,1,1,1,1,1,1,1,1,1,1,1,1,38
"H0YvoGWGO0v2xohnWtK1djejdv",278402,13,FALSE,229246,1,1,1,1,1,1,1,1,1,1,1,1,1,1,1,0,1,1,1,1,1,1,1,1,1,1,1,1,1,1,1,1,1,1,1,1,0,1,1,1,38
"h1DFEcojy0ktBBlwd2GRDmJb8T",5402759,1248,FALSE,171288,1,1,1,1,1,1,1,1,1,1,1,1,1,1,1,0,1,1,1,1,1,1,1,1,1,1,1,1,1,1,1,1,1,1,1,1,1,1,1,1,39
"h1h9yKGTbSaRLwt1CBpGRDCZMw",4489770,1249,FALSE,113980,0,1,1,1,1,1,1,1,1,1,1,1,1,1,1,0,1,1,1,1,1,1,1,1,1,1,1,1,1,1,1,1,1,1,1,1,1,0,0,1,36
"h2VNlqQxqZxA0pyUz4nNJeI8Ri",2110211,978,FALSE,129671,1,1,1,1,1,1,1,1,1,1,1,1,1,1,1,0,1,1,1,1,1,1,1,1,1,1,1,1,1,0,1,1,1,0,1,1,0,0,0,1,34
"h5gy3A6r5c9qbLvdDXi7YCvOSJ",2582872,641,FALSE,250219,1,1,1,1,1,1,1,1,1,1,1,1,1,1,1,0,1,1,1,1,1,1,1,1,1,1,1,1,1,1,1,1,1,1,1,1,1,1,1,1,39
"hA5ZY6FRqDKGFwhziyVLZZWhoZ",2230970,1053,FALSE,154879,1,1,1,1,1,1,1,1,1,1,1,1,1,1,1,0,1,1,1,1,1,1,1,1,1,1,1,1,1,1,0,1,0,0,1,0,0,0,0,0,31
"HbdrZHD6UiidrG6X6oFefKIGai",2888406,518,FALSE,139636,1,1,1,1,1,1,1,1,1,1,1,1,1,1,1,0,1,1,1,1,1,1,1,1,1,1,1,1,1,1,1,1,1,1,1,0,0,0,1,1,36
"hbskQIWdB65l7ZHYpQShThcIpB",3993862,119,FALSE,201650,1,1,1,1,1,1,1,1,1,1,1,1,1,1,1,0,1,1,1,1,1,1,1,1,1,1,1,1,1,0,1,1,1,0,0,1,1,0,0,0,33
"hBxFsi4BBP4y8ON9BpHYMuPuWF",1411065,184,FALSE,136878,1,1,1,1,1,1,1,1,1,1,1,1,1,1,1,0,1,1,1,1,1,1,1,1,1,1,1,1,1,1,0,1,1,1,1,0,1,1,0,1,36
"HCwzWPkZ5RhLI8LbhK4X78Q9Y8",2511209,992,FALSE,179986,1,1,1,1,1,1,1,1,1,1,1,1,1,1,1,0,1,1,1,1,1,1,1,1,1,1,1,1,1,1,1,1,1,1,1,1,1,0,1,0,37
"hCzYXSHjabhMOfRyE86kH8HdGy",1274213,434,FALSE,131498,1,1,1,1,1,1,1,1,1,1,1,1,1,1,1,0,1,1,1,1,1,1,1,1,1,1,1,1,1,1,1,1,1,1,1,1,1,1,0,0,37
"Hd1ibG0aTVHjLLK6sdtTv7SGX9",6411332,1249,FALSE,143075,1,1,1,1,1,1,1,1,1,1,1,1,1,1,1,0,1,1,1,1,1,1,1,1,1,1,1,1,1,1,1,1,0,1,1,1,1,0,0,0,35
"hdLFDaobFoe3KtfxpeotJ67AkU",2356220,1077,FALSE,141101,1,1,1,1,1,1,1,1,1,1,1,1,1,1,1,0,1,1,1,1,1,1,1,1,1,1,0,1,0,1,0,1,0,0,0,1,0,0,0,0,29
"hEAxK2SeuXfnbgYDAEH5L9UIIC",4816573,312,FALSE,95492,1,1,1,1,1,1,1,1,1,1,1,1,1,1,1,0,1,1,1,1,1,1,1,1,1,1,1,1,0,1,0,1,0,0,0,0,0,0,0,1,30
"HF5VR6oRd7r4OJUsEstnwrXbO4",8141271,1256,FALSE,213400,1,1,1,1,1,1,1,1,1,1,1,1,1,1,1,0,1,1,1,1,1,1,1,1,0,1,1,1,1,1,1,1,1,1,1,1,0,0,1,1,36
"HFNzl255Un9doolMCZ6wyfSRqd",953665,590,FALSE,193805,1,1,1,1,1,1,1,1,0,0,0,0,1,1,1,0,0,1,1,0,1,1,0,0,0,1,0,1,1,0,0,0,0,1,0,0,0,0,0,0,19
"hgg8ZgkkwStUBCR9LF7nhy6kCa",2996269,291,FALSE,182040,1,1,1,1,1,1,1,1,1,1,1,1,1,1,1,0,1,1,1,1,1,1,1,1,1,1,0,1,1,0,1,0,1,1,1,0,1,0,0,1,33
"hHTV1CvDkQzQwZkaouFBjlQsCt",1071068,611,FALSE,155861,1,1,1,1,1,1,1,1,1,1,1,1,1,1,1,0,1,1,1,1,1,1,1,1,1,1,1,1,1,0,1,1,0,1,0,0,1,0,0,0,32
"hJLvFwjJG2MZgjXVsndV8ZI3pV",76731603,1837,FALSE,231932,1,1,1,1,1,1,1,1,1,1,1,1,1,1,1,0,1,1,1,1,1,1,1,1,1,1,1,1,1,1,1,1,1,1,1,1,1,1,1,1,39
"hKa7up3te4JwSeTfHAAvCIasKL",2545555,1045,FALSE,339366,1,1,1,1,1,1,1,1,1,1,1,1,1,1,1,0,1,1,1,1,1,1,1,1,0,1,0,1,1,1,1,1,1,1,1,1,1,1,1,1,37
"HL1g0VVyYbovCVJ3fJonKWSqSG",5050112,1120,FALSE,378505,1,1,1,1,1,1,1,1,1,1,1,1,1,1,1,0,1,1,1,1,1,1,1,1,1,1,1,1,1,1,1,1,0,1,1,1,1,0,1,1,37
"HLAoIBWYsJovzgrRCrtn70sDHO",349882,22,FALSE,140967,1,1,1,1,1,1,1,1,1,1,1,1,1,1,1,0,1,1,1,1,1,1,1,1,1,1,1,1,1,1,1,1,1,1,1,0,1,0,1,1,37
"HLufmUbJLknFe2opGF5zU7QBhA",8340092,1105,FALSE,122778,1,1,1,1,1,1,1,1,1,1,1,1,1,1,1,0,1,1,0,1,1,1,1,1,1,1,1,1,1,0,1,0,1,1,0,0,0,0,0,0,30
"hOu3JpzO7RN6aWPratW1dCGOas",3281850,625,FALSE,126850,1,1,1,1,1,1,1,1,1,1,1,1,1,1,1,0,1,1,1,1,1,1,1,1,1,1,1,1,1,1,1,1,1,1,1,0,0,0,0,0,34
"HQGLoN9zobSkK9xUe1AWhNiTHA",1267716,22,FALSE,445265,1,1,1,1,1,1,1,1,1,1,1,1,1,1,1,0,1,1,1,1,1,1,1,1,1,1,1,1,1,1,1,1,1,1,1,1,1,1,1,1,39
"hqLAGAyhq7EFgGjpdbXcOLu35U",1862260,640,FALSE,482259,1,1,1,1,1,1,1,1,1,1,1,1,1,1,1,0,1,1,1,1,1,1,1,1,1,1,1,1,0,1,1,1,1,0,0,1,1,1,1,1,36
"hQT5qwzLOfye5mgySF5RNhubRq",3604900,178,FALSE,293300,1,1,1,1,1,1,1,1,1,1,1,1,0,1,1,0,1,1,1,1,1,1,1,1,1,0,0,1,1,1,1,1,0,1,1,1,1,1,0,1,34
"HQz4fdG52svMXrjNScgDccQUY7",357538,13,FALSE,307915,1,1,1,1,1,1,1,1,1,1,1,1,1,1,1,0,1,1,1,1,1,1,1,1,1,1,1,1,1,1,1,1,0,1,1,1,1,1,1,1,38
"Hr34hxKOtjYwAIdlHOsasx9HWc",1260977,115,FALSE,152690,1,1,1,1,1,1,1,1,1,1,1,1,1,1,1,0,1,1,1,1,1,1,1,1,1,1,1,1,1,1,1,1,0,1,1,0,0,0,1,0,34
"HR8GLnb9ULna5HmK8XWzq1iltp",2047733,537,FALSE,122896,1,1,1,1,1,1,1,1,1,1,1,1,1,1,1,0,1,1,1,1,1,1,1,1,1,1,1,1,1,1,1,1,1,1,1,1,1,0,1,1,38
"hrl5vGZXCklRXezUQQ0TEF3w6S",60945948,770,FALSE,298276,1,1,1,1,1,1,1,1,1,1,1,1,1,1,1,0,1,1,1,1,1,1,1,1,0,1,1,0,1,1,1,1,0,1,1,0,1,1,1,1,35
"HrLvqUNXtrsy1Q00scILYOcnsB",2671239,823,FALSE,118093,1,1,1,1,1,1,1,1,1,1,1,1,1,1,1,0,1,1,1,1,1,1,1,1,1,1,1,1,1,1,1,1,1,1,1,1,0,0,0,1,36
"HSCYYb9oNISwgDDgWm0GTv3k64",2549741,1230,FALSE,97897,1,1,1,1,1,1,1,1,1,1,1,1,1,1,1,0,1,1,1,1,1,1,1,1,1,1,1,1,1,0,1,1,0,1,1,0,0,0,0,0,32
"HSEykehyYtUOjwlhIDNCOuwJt1",2557495,832,FALSE,177877,1,1,1,1,1,1,1,1,1,1,1,1,1,1,1,0,1,1,1,1,1,1,1,1,1,1,1,1,1,1,0,1,1,1,1,1,1,0,0,0,35
"hTMQyo7gjMGk3SayG9EGaYBwRO",277944,13,FALSE,247581,1,1,1,1,1,1,1,1,1,1,1,1,1,1,1,0,1,1,1,1,1,1,1,1,1,1,1,1,1,1,1,1,0,1,1,1,0,1,1,1,37
"HTpoxAw9Jdvr55Z98AspwS1HHU",2781639,769,FALSE,353664,1,1,1,1,1,1,1,1,1,1,1,1,1,1,1,0,1,1,1,1,1,1,1,1,1,1,1,1,1,1,1,1,0,1,1,1,1,1,1,1,38
"hvcd0cbU8MZ5vJtyqFKnT8j6uw",1555705,706,FALSE,146664,1,1,1,1,1,1,1,1,1,1,1,1,1,1,0,0,1,1,1,0,1,1,1,1,0,0,1,1,1,1,0,1,1,1,1,1,0,0,0,0,30
"hvTBViztbHtb07WOX3r4pWruXo",1682496,727,FALSE,93881,1,1,1,1,1,1,1,1,1,1,1,1,1,1,1,0,1,1,1,1,1,1,1,1,1,1,1,1,1,1,0,1,0,1,1,1,0,0,0,1,34
"HWBm6tegoWotXXnTW5q8vMS369",2859379,311,FALSE,452115,1,1,1,1,1,1,1,1,1,1,1,1,1,1,1,0,1,1,1,0,1,1,1,1,1,1,0,1,0,0,1,0,1,1,1,1,1,1,1,1,34
"HwhGv8QliiR2VKfmgVLuHDZHZj",66310708,1230,FALSE,170907,1,1,1,1,1,1,1,1,1,1,1,1,1,1,1,0,1,1,1,1,1,1,1,1,1,1,1,1,1,0,0,1,1,1,0,0,0,0,0,1,32
"HyJc7TjgyCophlEkVTTFrv9HoR",2043328,490,FALSE,195955,1,1,1,1,1,1,1,1,1,1,1,1,1,1,1,0,1,1,1,1,1,1,1,1,0,0,1,1,1,0,1,1,1,1,1,1,1,1,1,1,36
"hyjNimqfAh5XHiwTfwIVqE4cOC",3073673,712,FALSE,110678,1,1,1,1,1,1,1,1,1,1,1,1,1,1,1,0,1,1,1,1,1,1,1,1,1,1,1,1,1,1,1,1,1,1,1,1,1,1,1,1,39
"i2hG0N8FILM8UyY6wC1oqmo9b2",3011981,321,FALSE,125085,1,1,1,1,1,1,1,1,1,1,1,1,1,1,1,0,1,1,1,1,1,1,1,1,1,1,1,1,1,1,0,1,1,0,1,0,0,0,0,0,32
"I6Es8DBY5knCldZUVFdZRC00G4",3378059,222,FALSE,131841,1,1,1,1,1,1,1,1,1,1,1,1,1,1,1,0,1,1,1,1,1,1,1,1,1,1,1,1,1,1,1,1,1,1,1,0,1,0,0,1,36
"i7B3WIPFzRStnjwIJmJdH93XRY",4574611,1248,FALSE,151544,1,1,1,1,1,1,1,1,1,1,1,1,1,1,1,0,1,1,1,1,1,1,1,1,1,1,1,1,1,0,1,1,0,1,0,0,1,0,0,1,33
"I7nZcdE2S9Dmp3BI5qyTJlhUun",5810538,1116,FALSE,178367,1,1,1,1,1,1,1,1,1,1,1,1,1,1,1,0,1,1,1,1,1,1,1,1,1,1,1,1,1,1,1,1,1,1,1,1,1,0,0,1,37
"iCkWKvT3K2aBEjSHopQpyrHIB9",144618,14,FALSE,125933,1,1,1,1,1,1,1,1,1,1,1,1,1,1,1,0,1,1,1,1,1,1,1,1,1,1,1,1,1,0,1,0,1,0,1,0,0,0,0,1,32
"idaMXvcDc2YzUek4u0Wkc37ixX",7833137,1236,FALSE,138392,1,1,1,1,1,1,1,1,1,1,1,1,1,1,1,0,1,1,1,1,1,1,1,1,1,1,1,1,1,1,1,1,1,1,1,1,0,0,1,1,37
"iDhXe8PAtvOIYA2m9oSrfuWZJ8",3495613,1006,FALSE,237549,1,1,1,1,1,1,1,1,1,1,1,1,1,1,1,0,1,1,1,1,1,1,1,1,1,1,1,1,1,1,0,1,1,1,1,0,0,0,0,0,33
"iDnyG3AOgkjmiZ8VfoCUkrueyd",1630290,960,FALSE,93290,1,1,1,1,1,1,1,1,1,1,1,1,1,1,1,0,1,1,1,1,1,1,1,1,1,1,1,1,1,1,0,1,0,1,1,0,0,0,0,0,32
"IeotI4nBi34Gud4fq7bwhQfH6B",5565014,1246,FALSE,152745,1,1,1,1,1,1,1,1,1,1,1,1,1,1,1,0,1,1,1,1,1,1,1,1,1,1,1,1,1,1,1,1,1,1,1,0,1,0,1,0,36
"iesnwRtMXcMtbUBj7xfIku8qV1",3920916,1219,FALSE,191727,1,1,1,1,1,1,1,1,1,1,1,1,1,1,1,0,1,1,1,1,1,1,0,1,1,1,1,1,1,1,0,1,1,0,1,0,0,0,1,1,33
"ieXwfYfgtoQXQdgDaUKsekis78",4834880,1085,FALSE,181341,1,1,1,1,1,1,1,1,1,1,1,1,1,1,1,0,1,1,1,1,1,1,1,1,1,1,1,1,1,1,1,1,1,1,1,1,1,0,1,1,38
"ifCrMD36sCeJQPvhdMgbDLQByb",3054747,1105,FALSE,135963,1,1,1,1,1,1,1,1,1,1,1,1,1,1,1,0,1,1,1,1,1,1,1,1,1,1,1,1,1,0,1,1,1,1,1,0,1,0,0,1,35
"igglDOQ85wWOorhpUwD2mbpaP0",1160515,105,FALSE,116258,1,1,1,1,1,1,1,1,1,1,1,1,1,1,1,0,1,1,1,1,1,1,1,1,0,1,0,1,1,1,1,0,1,1,0,0,1,0,1,0,32
"IhxWAJv7aYkMvXVgwI8AapfHc8",4292898,1255,FALSE,169071,1,1,1,1,1,1,1,1,1,1,1,1,1,1,1,0,1,1,1,1,1,1,1,1,1,1,0,1,0,0,0,1,0,0,0,0,1,0,0,0,28
"iiSv0HzZaMEEaTcPPncqosNWYy",1061108,141,FALSE,135737,1,1,1,1,1,1,1,1,1,1,1,1,1,1,1,0,1,1,1,1,1,1,1,1,0,1,1,1,1,1,1,1,1,0,1,1,1,1,0,0,35
"IiXfgznmQCjwpXA4vFl8wX6xdc",8434273,882,FALSE,4679163,1,1,1,1,1,1,1,1,1,1,1,1,1,1,1,0,1,1,1,1,1,1,1,1,1,1,1,1,1,1,1,1,1,1,1,1,1,1,1,1,39
"IL7x7pDBM0tU2dyMKplSbcVz1j",4068742,1255,FALSE,167452,1,1,1,1,1,1,1,1,1,1,1,1,1,1,1,0,1,1,1,1,1,1,1,1,1,1,1,1,1,1,1,1,0,1,1,0,1,0,1,0,35
"ilg2U9gEQsq3jMkfnpoMFVN5No",327615,22,FALSE,151040,1,1,1,1,1,1,1,1,1,1,1,1,1,1,1,0,1,1,1,1,1,1,1,1,1,1,1,1,1,1,1,1,1,1,1,1,0,0,0,1,36
"ILsXehYteFtQ43VyuCquikiPNd",1441198,257,FALSE,243225,1,1,1,1,1,1,1,1,1,1,1,1,1,1,1,0,1,1,1,1,1,1,1,1,1,1,1,1,1,1,1,1,0,1,1,1,1,1,1,1,38
"IN2RQEdiPIh8QVGLtHBhzprQjj",2715218,668,FALSE,306250,1,1,1,1,1,1,1,1,1,1,1,1,1,1,1,0,1,1,1,1,1,1,1,1,1,1,1,1,1,1,0,1,1,1,1,1,0,0,0,0,34
"inPa9DudJPazlARdHosCIP27GA",3205795,1110,FALSE,207239,1,1,1,1,1,1,1,1,1,1,1,1,1,1,1,0,1,1,1,1,1,1,0,1,0,1,0,1,1,1,1,0,1,1,0,0,0,1,0,1,31
"Iocj0PieH8aX74dySV183W5tkZ",2805187,773,FALSE,116752,1,1,1,1,1,1,1,1,1,1,1,1,1,1,1,0,1,1,1,1,1,1,1,1,1,1,1,1,1,1,1,1,0,1,0,1,0,0,0,0,33
"iOyFRrczACFTs8Vlpt7YKVhbbz",2175353,1133,FALSE,97761,1,1,1,1,1,1,1,1,1,1,1,1,1,1,1,0,1,1,1,1,1,1,1,1,1,1,1,1,1,1,1,1,1,0,1,0,0,0,0,0,33
"ipONUG9W8qcXYhFqAzQuuvSBSM",5201279,1256,FALSE,227564,1,1,1,1,1,1,1,1,1,1,1,1,1,1,1,0,1,1,1,1,1,1,1,1,1,1,1,1,1,1,0,1,1,0,0,1,0,0,0,0,32
"IQDF6OnPDDYSBeSpjc7TYa3Oe5",2604816,491,FALSE,246173,1,1,1,1,1,1,1,1,1,1,1,1,1,1,1,0,1,1,1,1,1,1,1,0,1,1,1,1,1,1,0,0,0,1,0,0,0,0,1,0,30
"iQFHfllELMzL4arNqC8Ngqt5Ce",2635559,650,FALSE,170814,1,1,1,1,1,1,1,1,1,1,1,1,1,1,1,0,1,1,1,1,1,1,1,1,0,1,1,1,1,1,1,1,1,1,1,1,0,1,1,0,36
"isTkiRKFuDcosqid7kv1zeWlPx",1284627,88,FALSE,162780,1,1,1,1,1,1,1,1,1,1,1,1,1,1,0,0,1,1,1,1,1,1,1,1,1,1,1,1,1,0,1,1,0,1,1,1,0,1,1,1,35
"IT4iM82O9Gcgu0l8RpScHzX5PP",2972733,198,FALSE,343624,1,1,1,1,1,1,1,1,1,1,1,1,1,1,1,0,1,1,1,1,1,1,1,1,1,1,1,1,1,1,1,1,1,1,1,1,0,1,1,1,38
"iUnApjveqQC9TznGxscuGLZPqF",5986228,1255,FALSE,147562,1,1,1,1,1,1,1,1,1,1,1,1,1,1,1,0,1,1,1,1,1,1,1,1,1,1,1,1,1,1,0,1,0,1,1,1,1,0,0,0,34
"iV4V3aqPi2me7QaF9WUsZRROeC",5457204,1240,FALSE,155436,1,1,1,1,1,1,1,1,1,1,1,1,1,1,1,0,1,1,1,1,1,1,1,1,1,1,1,1,1,1,0,1,1,1,1,1,0,0,0,0,34
"iv7yNO861gmKn98tqGAQGjLWJR",1206403,47,FALSE,252805,1,1,1,1,1,1,1,1,1,1,1,1,1,1,1,0,1,1,1,1,1,1,1,1,1,1,1,1,1,1,1,1,1,1,0,1,1,0,1,1,37
"iVjTLikNhjlojBe4X3QbJOUzQM",161426,14,FALSE,131871,1,1,1,1,1,1,1,1,1,1,1,1,1,1,1,0,1,1,1,1,1,1,1,1,1,1,1,1,1,0,1,1,1,1,1,0,1,0,0,1,35
"IvMXe4y3hcScppA56WUBi3EoZP",4386560,1237,FALSE,301454,1,1,1,1,1,1,1,1,1,1,1,1,1,1,1,0,1,1,1,1,1,1,1,1,1,1,1,1,1,1,1,1,1,1,1,1,1,0,1,1,38
"IvwHdcZBgeKEhRa931uZnAxPes",4259577,655,FALSE,291582,1,1,1,1,1,1,1,1,1,1,1,1,1,1,1,0,1,1,1,1,1,1,1,1,1,1,1,1,1,1,1,1,1,1,1,1,1,1,1,1,39
"ixDR2QM4PTWqkrDOKup0my6pT3",3721509,1185,FALSE,111775,1,1,1,1,1,1,1,1,1,1,1,1,1,1,1,0,1,1,1,1,1,1,1,1,1,1,1,1,1,1,0,1,1,1,1,1,0,0,0,1,35
"IXw79xhZk9n8AbF9W9tuRaHyp7",4839431,1241,FALSE,169735,1,1,1,1,1,1,1,1,1,1,1,1,1,1,1,0,1,1,1,1,1,1,1,1,1,1,1,1,1,1,1,0,0,1,1,0,1,0,1,0,34
"Iy7qNJcV3MsqJg9Hs72sYZtk8f",803290,34,FALSE,317011,1,1,1,1,1,1,1,1,1,1,1,1,1,1,1,0,1,1,1,1,1,1,1,1,1,1,1,1,1,1,1,1,1,1,1,1,1,1,1,1,39
"j109WTRUPLYK3rJetfQBUX0QTN",1050982,378,FALSE,364997,1,1,1,1,1,1,1,1,1,1,1,1,1,1,1,0,1,1,1,0,0,0,0,1,0,0,0,0,0,0,0,1,1,0,0,1,0,0,0,1,23
"J48hnpiVj0E3WZHXP0VXikAwB6",168505144,1248,FALSE,186813,1,1,1,1,1,1,1,1,1,1,1,1,1,1,1,0,1,1,1,1,1,1,1,1,1,1,1,1,1,1,0,1,0,1,0,0,1,0,0,0,32
"j4VhkvELHsuAIxNFXiKvsZuajR",293304,13,FALSE,240013,1,1,1,1,1,1,1,1,1,1,1,1,1,1,1,0,1,1,1,1,1,1,1,1,1,1,1,1,1,1,1,1,1,1,1,1,1,1,1,1,39
"j5aEESnqsN7ljPSR4iSEDpegOj",3559103,1024,FALSE,426661,1,1,1,1,1,1,1,1,1,1,1,1,1,1,1,0,1,1,1,1,1,1,1,0,1,1,1,1,1,1,1,1,1,1,1,1,1,1,1,1,38
"jafDtmT4lgKaideNHTnlw5ho0O",102720220,123,FALSE,112100,1,1,1,1,1,1,1,1,1,1,1,1,1,1,1,0,1,1,1,1,1,1,1,1,1,1,1,1,1,1,1,1,1,1,1,1,1,1,0,1,38
"jBDnMn0ty1C07s5WEoLoVmC2vo",2594013,313,FALSE,135555,1,1,1,1,1,1,1,1,1,1,1,1,1,1,1,0,1,1,1,1,1,1,1,1,1,1,1,1,1,1,0,1,1,1,0,0,0,0,0,0,32
"jCsYPMCnv0xMnIn2HABVzP9DJ1",4078835,1256,FALSE,118105,1,1,1,1,1,1,1,1,1,1,1,1,1,1,1,0,1,1,1,1,1,1,1,1,1,1,1,1,1,1,1,1,1,0,1,0,1,1,0,0,35
"je3UJMp4v3PznFmdWVHilhEtJ5",3802662,1210,FALSE,118897,1,1,1,1,1,1,1,1,1,1,1,1,1,1,1,0,1,1,1,1,1,1,1,1,1,1,1,1,1,1,1,1,1,1,1,1,0,0,0,1,36
"Je3vCtUT0eNXBHiHVjg47Jn4RE",914456,590,FALSE,139467,1,1,1,1,1,1,1,1,1,1,1,1,1,1,1,0,1,1,1,1,1,1,1,1,1,1,1,1,1,1,1,1,1,1,1,1,0,1,1,1,38
"JEEdmQw3kwn5WURPkwH6faxcUQ",568717,22,FALSE,221171,1,1,1,1,1,1,1,1,1,1,1,1,1,1,1,0,1,1,1,1,1,1,1,1,1,1,1,1,1,1,0,1,1,1,1,1,0,0,1,0,35
"JeTTub1sxY3X64KhVNxWvFvJ38",648147,42,FALSE,214241,1,1,1,1,1,1,1,1,1,1,1,1,1,1,1,0,1,1,1,1,1,1,1,1,1,1,0,1,1,1,1,0,0,1,0,1,0,0,1,1,33
"jfC0x4PaO8M6Ubfh6vsf8nNn4Y",263923,13,FALSE,185947,1,1,1,1,1,1,1,1,1,1,1,1,1,1,1,0,1,1,1,1,1,1,1,1,1,1,1,1,1,1,1,1,1,1,1,0,1,1,1,1,38
"jglulYgCeWfSofaqgo17ESML44",5669952,499,FALSE,326001,1,1,1,1,1,1,1,1,1,1,1,1,1,1,1,0,1,1,1,1,1,1,1,1,1,1,1,1,1,1,0,1,0,1,0,1,0,1,1,1,35
"JhU9w65y9c80i1xqBMcascvEFB",2954137,297,FALSE,153694,1,1,1,1,1,1,1,1,1,1,1,1,1,1,1,0,1,1,1,1,1,1,1,1,0,1,1,1,1,1,1,1,1,0,1,1,1,1,1,1,37
"JI0kypdQwT4vXupM8TZFF0byqQ",5437377,1109,FALSE,134911,1,1,1,1,1,1,1,1,1,1,1,1,1,1,1,0,1,1,1,1,1,1,1,1,1,1,1,1,1,1,1,1,1,1,1,1,1,0,1,1,38
"JiGuMDvD3I1oTHPnTOw4urCqny",3555659,714,FALSE,139308,1,1,1,1,1,1,1,1,1,1,1,1,1,1,1,0,1,1,1,1,1,1,1,1,1,1,1,1,1,1,1,1,1,1,1,1,1,0,1,1,38
"jIHGvL7Ji9VA77twpO9oyWEKGz",91398141,728,TRUE,601007,1,1,1,1,1,1,1,1,1,1,1,1,1,1,1,0,0,1,1,1,1,1,0,1,1,1,0,1,1,1,1,1,1,1,0,1,1,1,1,1,35
"jiJShsIRy7nU8rtjLkZ0eVRMJO",4381614,1126,FALSE,265040,1,1,1,1,1,1,1,1,1,1,1,1,1,1,1,0,1,1,1,1,1,0,1,1,0,0,0,0,1,1,0,1,0,1,1,0,1,1,0,1,30
"JKa3dmSzh727VaNln0dbDGdnps",8024059,1150,FALSE,95250,1,1,1,1,1,1,1,1,1,1,1,1,1,1,1,0,1,1,1,1,1,1,1,1,1,1,1,1,1,1,0,1,0,1,1,0,1,0,1,1,35
"JkXCkB2yrXu4pYdC7ehnaV2daa",4403086,873,FALSE,139581,1,1,1,1,1,1,1,1,1,1,1,1,1,1,1,0,1,1,1,1,1,1,1,1,1,1,1,1,1,1,1,1,0,1,1,0,1,0,0,0,34
"JNaOqW0sdeRT0AltcxBBCVCftU",2215155,529,FALSE,230824,1,1,1,1,1,1,1,1,1,1,1,1,0,1,1,0,1,1,1,1,1,1,1,1,0,0,1,1,1,0,1,1,0,1,0,0,1,0,1,0,30
"jOgweHhaXBCfs9ZvBiDK8zaHkc",2339433,775,FALSE,178936,1,1,1,1,1,1,1,1,1,1,1,1,1,1,1,0,1,1,1,1,1,1,1,1,1,1,1,1,1,1,0,1,0,1,1,0,1,0,0,0,33
"JOwLfcaKlfmYmKxZWtsmcUTGmv",537580,79,FALSE,119228,1,1,1,1,1,1,1,1,1,1,1,1,1,1,1,0,1,1,1,1,1,1,1,1,1,1,1,1,1,1,1,1,1,1,1,1,1,0,1,1,38
"JQ2ojLGRUgAw5wD2FjyffCUoZy",1074480,108,FALSE,227649,1,1,1,1,1,1,1,1,1,1,1,1,1,1,1,0,1,1,1,1,1,1,1,1,1,1,1,1,1,0,0,1,0,0,1,0,1,0,0,0,31
"jQR3wkyL8ZEgTUcBCdQtv0426r",1156918,466,FALSE,114260,1,1,1,1,1,1,1,1,1,1,1,1,1,1,1,0,1,1,1,1,1,1,1,1,1,1,1,1,1,1,1,1,0,1,1,1,1,0,0,1,36
"JqUcwIC6WG3decNxN39bOcSzrr",4353513,899,FALSE,135504,1,1,1,1,1,1,1,1,1,1,1,1,1,1,1,0,1,1,1,1,1,1,1,1,1,1,1,1,1,1,0,1,0,0,1,0,1,0,0,0,32
"jT8pOv4cPWJCbyRg6yhAVzQkNK",4399891,658,FALSE,202498,1,1,1,1,1,1,1,1,1,1,1,1,1,1,1,0,1,1,1,1,1,1,1,1,1,1,1,1,1,1,1,1,0,1,1,0,1,0,1,0,35
"ju1TsAsHtqnVji0SV6CozMEiqv",2333061,769,FALSE,124449,1,1,1,1,1,1,1,1,1,1,1,1,1,1,1,0,1,1,1,1,1,1,1,1,1,1,1,1,1,1,0,1,1,1,1,1,1,0,1,0,36
"JV9NgLh9DUUn4yI4csL5ZqLVXM",2748732,758,FALSE,136559,1,1,1,1,1,1,1,1,0,1,1,1,1,1,1,0,1,1,1,1,1,1,1,1,1,1,1,1,1,0,1,0,1,0,0,1,0,0,0,0,30
"jxKp9sXExdF7aXgIV9d4e9jje6",4634485,1029,FALSE,120256,1,1,1,1,1,1,1,1,1,1,1,1,1,1,1,0,1,1,1,1,1,1,1,1,1,1,1,1,1,1,1,1,1,1,1,1,1,0,0,0,36
"jYJDOtwXELskpzpQLdnJsFfkIx",5544248,1213,FALSE,213764,1,1,1,1,1,1,1,1,1,1,1,1,1,1,1,0,1,1,1,1,1,1,1,1,1,1,1,1,1,1,0,1,1,1,1,1,1,1,1,1,38
"JYYC1IGZ0p9P0RBch6lFeh7TVZ",515815,13,FALSE,452489,1,1,1,1,1,1,1,1,1,1,1,1,1,1,1,0,0,1,1,1,1,1,1,1,0,1,1,1,1,1,1,1,1,1,1,1,1,1,1,1,37
"JzwY0KAS85gMUiakQVuRl6MWfG",2390371,190,TRUE,601026,1,1,1,1,1,1,1,1,1,1,1,1,1,1,1,0,1,1,1,1,1,1,1,1,1,1,1,1,1,1,0,1,0,0,1,0,1,0,0,0,32
"K2JsLXQtZvq01NcCtDjznMDmhZ",1520439,383,FALSE,210321,1,1,1,1,1,1,1,1,1,1,1,1,1,1,1,0,1,1,1,1,1,1,1,1,1,1,1,1,1,1,0,1,0,1,1,1,1,0,1,0,35
"K6zPyHeMQvej7tfVjDRrQIXylO",4293882,878,FALSE,135465,1,1,1,1,1,1,1,1,1,1,1,1,1,1,1,0,1,1,1,1,1,1,1,1,1,1,1,1,1,1,1,1,0,0,0,0,0,0,0,0,31
"KA63lXcshtVitvuSPW4YfZr9iH",6757407,1210,FALSE,182282,1,1,1,1,1,1,1,1,1,1,1,1,1,1,1,0,1,1,1,1,1,1,1,1,1,0,1,1,1,1,0,1,0,1,1,0,0,1,0,0,32
"KAUdzNddDclwvyjVTJpfMKf5Cm",1624029,415,FALSE,198709,1,1,1,1,1,1,1,1,1,1,1,1,1,1,1,0,1,1,1,1,1,1,1,1,1,1,1,1,1,0,1,1,0,0,1,0,0,0,0,0,31
"KbIsmVBprC5DAqkNS4zZtaO7sp",3198912,557,FALSE,291879,1,1,1,1,1,1,1,1,1,1,1,1,1,1,1,0,1,1,1,1,1,1,1,1,1,1,1,0,1,0,0,0,0,1,1,1,1,0,0,0,31
"KBKSEISJStlJk678ZSnqgWNSmF",4981450,1230,FALSE,209241,1,1,1,1,1,1,1,1,1,1,1,1,1,1,1,0,1,1,1,1,1,1,1,1,1,1,1,1,1,1,1,1,1,1,1,0,0,0,1,1,36
"kEi95gLf89SpH2XqgMwVF5caGn",2144674,387,FALSE,221023,1,1,1,1,1,1,1,1,1,1,1,1,1,1,1,0,1,1,1,1,1,1,1,1,1,1,1,1,1,1,0,1,1,1,1,0,0,0,0,1,34
"kF6QGzg9szxOUJKdkrf8K4PZJI",2269669,648,FALSE,182165,1,1,1,1,1,1,1,1,1,1,1,1,1,1,1,0,1,1,1,1,1,1,1,1,1,1,1,1,1,1,1,1,0,1,1,1,0,0,1,1,36
"kg2HKYpGZVTTMtVe98ijKrGUHb",1543976,33,FALSE,337665,1,1,1,1,1,1,1,1,1,1,1,1,1,1,1,0,1,1,1,1,1,1,1,1,1,1,1,1,1,1,1,1,1,1,1,1,1,1,1,1,39
"KGkv97QC8oWRhOgF9rCbDQ5gZ6",135088,13,FALSE,117033,1,1,1,1,1,1,1,1,1,1,1,1,1,1,1,0,1,1,1,1,1,1,1,1,1,1,1,1,1,1,0,1,0,1,1,0,1,0,0,1,34
"kK7WGi0XuEedWzaOlSaBvm4DWx",1530261,619,FALSE,107747,1,1,1,1,1,1,1,1,1,1,1,1,1,1,1,0,1,1,1,1,1,1,1,1,1,1,1,1,1,1,1,1,1,1,1,1,1,1,0,1,38
"kLBfO3bhpWv8FGFSxkjCUJJj6k",2705941,755,FALSE,186209,1,1,1,1,1,1,1,1,1,1,1,1,1,1,1,0,1,1,1,1,1,1,1,1,1,1,1,1,1,1,1,1,1,1,0,1,1,0,0,1,36
"kmBMWly0MCKeNQboBhdaNkJGqu",2373298,1118,FALSE,145833,1,1,1,1,1,1,1,1,1,1,1,1,1,1,0,0,1,1,1,1,1,1,0,1,1,0,1,1,1,1,0,1,0,1,0,0,0,0,0,0,28
"KMIQRSeuwZcln2nE1ggKRwVYsv",742536,384,FALSE,160721,1,1,1,1,1,1,1,1,1,1,1,1,1,1,1,0,1,1,1,1,1,1,1,1,0,1,1,1,1,1,0,1,0,1,1,0,1,0,1,0,33
"kMREgXdoVv8SqaPMugfqg5sC44",3394699,1174,FALSE,191658,1,1,1,1,1,1,1,1,1,1,1,1,1,1,1,0,1,1,1,1,1,1,1,1,1,1,1,1,1,1,1,1,1,1,1,1,1,0,0,1,37
"kmyYVt19kPw2unD2cQT0iFsqGS",38421602,1256,FALSE,197677,1,1,1,1,1,1,1,1,1,1,1,1,1,1,1,0,1,1,1,1,1,1,1,1,1,1,1,1,1,1,1,1,1,1,1,1,1,1,1,1,39
"kn4qxQZKifWlIYf4GSy0PAJyuh",1000058,110,FALSE,172604,1,1,1,1,1,1,1,1,1,1,1,1,1,1,1,0,0,1,1,1,1,1,1,1,1,1,1,1,1,1,0,1,1,0,1,0,0,1,1,0,33
"kNECVA6KZTsSXT0qFa6P7iZCKg",762315,47,FALSE,133104,1,1,1,1,1,1,1,1,1,1,1,1,1,1,1,0,1,1,1,1,1,1,1,1,1,1,1,1,1,1,1,1,1,0,0,1,0,0,0,0,33
"knlk5VPeN7YnFTP5eGID2P8ShK",3593687,293,FALSE,195332,1,1,1,1,1,1,1,1,1,1,1,1,1,1,1,0,1,1,1,1,1,1,1,1,1,1,1,1,1,1,0,1,1,1,0,0,0,0,1,0,33
"Kqu00ZKz9uU9HN4oJJb4oCPQu4",1647329,376,FALSE,267115,1,1,1,1,1,1,1,1,1,1,1,1,1,1,1,0,1,1,1,1,1,1,1,1,1,0,1,1,1,1,0,1,1,1,1,1,0,0,1,1,35
"krUzu4Lt71lhyTOT1WLQGrAL3V",609189,13,FALSE,562408,1,1,1,1,1,1,1,1,1,1,1,1,1,1,1,0,1,1,1,1,1,1,1,1,1,1,1,1,1,1,1,1,1,1,1,1,0,1,1,0,37
"KrYpfKRJAsAUhrGGrSKfONafMv",3097958,1205,FALSE,114596,1,1,1,1,1,1,1,1,1,1,1,1,1,1,1,0,1,1,1,1,1,1,1,1,1,1,1,1,1,1,1,1,0,1,1,0,0,0,1,0,34
"KsHX3HjyE0H1UGov421TVs0Lx8",36765009,626,FALSE,221949,1,1,1,1,1,1,1,1,1,1,1,1,1,1,1,0,1,1,1,1,1,1,1,1,1,1,1,1,1,0,1,1,1,1,1,1,0,1,1,1,37
"ku2CfmLzD9M7QSz1wXrrYDiS57",2243377,408,FALSE,207715,1,1,1,1,1,1,1,1,1,1,1,1,1,1,1,0,1,1,1,1,1,1,1,1,1,1,1,1,1,0,1,1,1,1,1,1,1,1,1,1,38
"kuH2L52U49lZ75yn4h0cUraN3S",1914724,712,FALSE,206746,1,1,1,1,1,1,1,1,1,1,1,1,1,1,1,0,1,1,1,1,1,1,1,1,0,1,1,1,1,0,0,1,0,1,1,0,0,1,1,0,32
"kutrWI5dMcp8kzEGR6Q103Dxec",6149831,1240,FALSE,106996,1,1,1,1,1,1,1,1,1,1,1,1,1,1,1,0,1,1,1,1,1,1,1,1,1,1,1,1,1,1,1,1,1,1,1,0,1,0,0,1,36
"kwTEdAS9ef4ZvCAzCLUcdcdnQK",85095178,44,FALSE,227356,1,1,1,1,1,1,1,1,1,1,1,1,1,1,1,0,1,1,1,1,1,1,1,1,1,1,1,1,1,1,1,1,1,1,1,1,1,1,1,1,39
"KYAjmhabDTFr0McGDGoBJQWP48",1198342,29,FALSE,153056,1,1,1,1,1,1,1,1,1,1,1,1,1,1,1,0,1,1,1,1,1,1,1,1,1,1,1,1,1,0,1,1,0,1,1,1,1,0,1,1,36
"KYZs2cxLs1LlFCMtNzlJYeMgvS",1922080,745,FALSE,144201,1,1,1,1,1,1,1,1,1,1,1,1,1,1,1,0,1,1,1,1,1,1,1,1,1,1,1,1,1,1,0,1,1,1,1,1,1,0,0,1,36
"l0xP1oAfW82B9Ftb4RvNztbXmf",85514065,22,FALSE,203005,1,1,1,1,1,1,1,1,1,1,1,1,1,1,1,0,1,1,1,1,1,1,1,1,1,1,1,1,1,1,1,1,0,1,1,1,0,1,1,1,37
"L1QqMenGfcMIiak39imZc9rZxn",3712729,606,FALSE,153629,1,1,1,1,1,1,1,1,1,1,1,1,1,1,1,0,0,1,1,1,1,1,1,0,1,1,1,1,1,0,0,0,0,1,1,0,0,0,0,0,28
"l3OjEjQ31XHY04A6cgDfuYc2iZ",4314458,1201,FALSE,139877,1,1,1,1,1,1,1,1,1,1,1,1,1,1,1,0,1,1,1,1,1,1,1,1,1,1,1,1,1,1,1,1,0,1,1,1,1,0,0,1,36
"l4n4E9nC1llm18Mzz9whrv9Mah",11660541,714,FALSE,146234,1,1,1,1,1,1,1,1,1,1,1,1,1,1,1,0,1,1,1,1,1,1,1,1,1,1,1,1,1,0,1,1,0,1,1,0,0,0,0,0,32
"l7VPRF8LR5tHtPb9i0tGMQV31e",5245356,733,FALSE,134518,1,1,1,1,1,1,1,1,1,1,1,1,1,1,1,0,1,1,1,1,1,1,1,1,1,1,1,1,1,1,1,1,1,1,1,0,1,0,0,0,35
"L8SRwWm4ABPpsdtdmQGg7M7HRX",2662128,128,FALSE,105933,1,1,1,1,1,1,1,1,1,1,1,1,1,1,1,0,1,1,1,1,1,1,1,1,1,1,1,1,1,1,1,1,1,1,1,1,1,0,1,1,38
"L9CQBeyXCPfRxo1BuVO7U7oaw9",2217399,95,FALSE,416243,1,1,1,1,1,1,0,1,1,1,1,1,1,1,0,0,1,1,0,1,0,1,0,0,0,1,0,0,0,0,0,1,0,0,1,0,0,1,0,0,21
"latrlAmGKGswP3nu4uX3Ea1yfr",3942033,616,FALSE,180426,1,1,1,1,1,1,1,1,1,1,1,1,1,1,1,0,1,1,1,1,1,1,1,1,1,1,1,1,1,1,1,1,1,1,1,0,0,0,0,0,34
"lbBrKab9YBw5hbwKV55PPKIyiF",4886906,869,FALSE,164647,1,1,1,1,1,1,1,1,1,1,1,1,1,1,1,0,1,1,1,1,1,1,1,1,1,1,1,1,1,1,1,1,1,1,0,0,0,1,1,1,36
"lBGDyGsiaL16USTC2nyJ7ECZvI",335085,13,FALSE,248300,1,1,1,1,1,1,1,1,1,1,1,1,1,1,1,0,1,1,1,1,1,1,1,1,1,1,1,1,1,1,1,1,1,1,1,1,1,0,0,1,37
"LbpvZFhmm7FIWKvZpcJds6XumR",151098695,535,FALSE,181082,1,1,1,1,1,1,1,1,1,1,1,1,1,1,1,0,1,1,1,1,1,1,1,1,1,1,1,1,1,1,1,1,0,1,1,1,1,1,1,1,38
"lByw0oKzfW72LpoYEZZaOtl3H7",2491571,470,FALSE,183456,1,1,1,1,1,1,1,1,1,1,1,1,1,1,1,0,1,1,1,1,1,1,1,1,1,1,1,1,1,1,0,1,1,1,1,0,0,0,1,0,34
"LCE9VabjOMWa6uymFKWQ20zkYN",695715,47,FALSE,277667,1,1,1,1,1,1,1,1,1,1,1,1,1,1,1,0,1,1,1,1,1,1,1,1,0,1,1,1,1,1,1,1,1,1,1,1,0,1,1,1,37
"LD3HgmINTG5LYGXMlYkV3CT2hF",7817648,579,FALSE,141378,1,1,1,1,1,1,1,1,1,1,1,1,1,1,1,0,1,1,1,1,1,1,1,1,1,1,1,1,1,1,1,1,1,1,1,1,1,0,0,1,37
"ldg8GxRiI4NfshSWiGzp1TU8l5",2667109,743,FALSE,149609,1,1,1,1,1,1,1,1,1,1,1,1,1,1,1,0,1,1,1,1,1,1,1,1,1,1,1,1,1,0,0,1,1,1,1,0,1,0,0,1,34
"LDgwU0FI2DNdm2KVZMIda6MtJs",1238539,619,FALSE,138697,1,1,1,1,1,1,0,1,1,1,1,1,1,1,1,0,1,1,1,1,1,1,1,1,1,1,1,1,1,0,0,1,1,1,1,0,1,0,1,0,33
"lDrA1nCevzm3UavCIq0nDoYH1b",1854630,1023,FALSE,150474,1,1,1,1,1,1,1,1,1,1,1,1,1,1,1,0,1,1,1,1,1,1,1,1,1,1,1,1,1,1,0,1,0,1,0,0,0,0,0,0,31
"LdwZbWQolsAycvxJkoZFemMF3R",1209792,28,FALSE,149279,1,1,1,1,1,1,1,1,1,1,1,1,1,1,1,0,1,1,1,1,1,1,1,1,0,1,1,1,1,1,0,1,1,1,1,0,0,0,0,0,32
"LEPMFqpM60mBSui5KqPu9HKo0d",3669727,397,FALSE,303491,1,1,1,1,1,1,1,1,1,1,1,1,1,1,1,0,1,1,1,1,1,1,1,1,1,1,1,1,0,1,1,1,1,0,1,1,0,1,0,0,34
"LF3cV7Xkff7fTVmNYQmA9JeQ4z",5312704,1229,FALSE,184943,1,1,1,1,1,1,1,1,1,1,1,1,1,1,1,0,1,1,1,1,1,1,1,1,1,1,1,1,1,1,0,1,1,0,1,1,1,0,0,0,34
"LF3gs5WJ11ptZZ7Xgq3Gkb9zNn",8689770,392,FALSE,180692,1,1,1,1,1,1,1,1,1,1,1,1,1,1,1,0,1,1,1,1,1,1,1,1,1,1,1,1,1,1,1,1,1,1,1,1,1,1,1,1,39
"LFpp2rh9StpcSCXCEcZ6OJtwZJ",144291,13,FALSE,110306,1,1,1,1,1,1,1,1,1,1,1,1,1,1,1,0,1,1,1,1,1,1,1,1,1,1,1,1,1,1,1,1,1,1,1,1,1,1,1,1,39
"lGb2NsUxUWdSGErGVAXP2xYQI8",4193150,744,FALSE,136691,1,1,1,1,1,1,1,1,1,1,1,1,1,1,1,0,1,1,1,1,1,1,1,1,1,1,1,1,1,0,1,1,0,1,1,1,1,0,0,0,34
"LHvQCIlEMWTttFGgCEndNUD7DH",2870708,694,FALSE,174245,1,1,1,1,1,1,1,1,1,1,1,1,1,1,1,0,1,1,1,1,1,1,1,1,1,1,1,1,1,1,1,1,1,1,1,1,1,0,0,0,36
"LI9KTjle7zc3tcA62CwYWhkCF1",976292,56,FALSE,205915,1,1,1,1,1,1,1,1,1,1,1,1,1,1,1,0,1,1,1,1,1,1,1,1,1,1,1,1,1,1,1,1,1,1,1,0,1,1,1,1,38
"lIYyoQAoZLSqXuFPVjVcs9LczN",4876858,1251,FALSE,382988,1,1,1,1,1,1,1,1,1,1,1,1,1,1,1,0,1,1,1,1,1,1,1,1,1,1,1,1,1,1,1,1,1,1,1,0,1,0,0,1,36
"lIzvm4CJCiThF7y01htWkxAJVc",1489015,481,FALSE,176923,1,1,1,1,1,1,1,1,1,1,1,1,1,1,1,0,1,1,1,1,1,1,1,1,1,1,1,1,1,1,1,1,1,1,1,0,1,1,0,0,36
"ljLWgOQJ2USQlQKOwZMLgQLC7U",2920359,533,FALSE,281979,1,1,1,1,1,1,1,1,1,1,1,0,1,1,1,0,1,1,1,1,1,1,0,1,0,1,1,1,1,1,1,0,0,1,1,1,1,1,1,1,34
"lkhGRwKvPDRbKvXxIQSwh3c8Q9",91780807,1232,FALSE,136261,1,1,1,1,1,1,1,1,1,1,1,1,1,1,1,0,1,1,1,1,1,1,1,1,1,1,1,1,1,1,0,1,1,1,0,1,0,0,0,1,34
"LklZ1xWADYfgWvvXt76B4VIEsp",1012308,168,FALSE,156099,1,1,1,1,1,1,1,1,1,1,1,1,1,1,1,0,1,1,1,1,1,1,1,1,1,1,1,1,1,1,1,1,1,1,1,0,1,1,1,1,38
"lkrQPJeQYWnpU2QZggJgWbbpnn",933114,616,FALSE,125522,1,1,1,1,1,1,1,1,1,1,1,1,1,1,1,0,1,1,1,1,1,1,1,1,1,1,1,1,1,1,0,1,1,1,1,0,1,0,0,0,34
"lKZJvNSZUuiul0VN6enGYh5Mkc",9335162,1003,FALSE,151148,1,1,1,1,1,1,1,1,1,1,1,1,1,1,1,0,1,1,1,1,1,1,1,1,1,1,1,1,1,1,1,1,1,1,1,1,1,1,1,1,39
"LMQ0tzADSYlkHYjuApntzVxTZj",6599360,1243,FALSE,174943,1,1,1,1,1,1,1,1,1,1,1,1,1,1,1,0,1,1,1,1,1,1,1,1,1,0,1,0,1,0,0,0,0,1,1,0,0,0,0,0,28
"lnC4IFmXHyja6WjBDdpgNnKoGs",9578008,1245,FALSE,147042,1,1,1,1,1,1,1,1,1,1,1,1,1,1,1,0,1,1,1,1,1,1,1,1,1,1,1,1,1,1,1,1,1,1,1,0,1,0,1,0,36
"lnEhsbz68RKvL0eHw8UBXgqE9c",132124276,1245,FALSE,243588,1,1,1,1,1,1,1,1,1,1,1,1,1,1,1,0,1,1,1,1,1,1,1,0,1,1,1,1,1,1,1,1,1,1,1,1,1,1,1,1,38
"Lnjzlp1B3LD6k9IGtiLnbIyQCT",3018468,784,FALSE,264545,1,1,1,1,1,1,1,1,1,1,1,0,1,1,0,0,1,1,1,1,1,1,1,1,1,1,1,1,1,1,0,1,0,1,1,1,0,1,1,1,34
"LPA3dg3KKHIlHp5Gt7kwYun8Dc",1124870,21,FALSE,372156,1,1,1,1,1,1,1,1,1,1,1,1,1,1,1,0,1,1,1,1,1,1,1,1,1,0,1,1,1,0,0,1,0,0,0,0,0,1,0,1,30
"lPinvg7CvzsGUnsNRmGuF0bWDl",1034674,128,FALSE,120873,1,1,1,1,1,1,1,1,1,1,1,1,1,1,1,0,1,1,1,1,1,1,1,1,1,1,1,1,1,1,1,1,1,1,1,0,1,0,0,1,36
"lPw04umoqgoEFUGKvJ413tvEFd",2881884,473,FALSE,186592,1,1,1,1,1,1,1,1,1,1,1,1,1,1,1,0,1,1,1,1,1,1,1,1,1,1,1,1,1,1,1,1,1,1,1,0,1,0,1,1,37
"LPWKGscGcQlnpuVg0Lz66NigRS",999833,28,FALSE,473444,1,1,1,1,1,1,1,1,1,1,1,1,1,1,1,0,1,1,1,1,1,1,1,1,1,1,1,1,1,1,1,1,1,1,1,1,1,1,1,1,39
"lQ2r83NNQMukZNUxALnH4byVnC",6445510,1236,FALSE,191489,1,1,1,1,1,1,1,1,1,1,1,1,1,1,1,0,1,1,1,1,1,1,1,1,1,1,1,1,1,0,0,0,0,0,1,0,1,0,0,0,30
"LQ8ZvVz468M4f3hqdjrKPy1Ehr",927811,22,FALSE,165102,1,1,1,1,1,1,1,1,0,1,1,1,1,1,1,0,1,1,1,1,1,1,1,1,1,1,1,1,1,1,1,1,0,1,1,0,0,0,0,0,32
"LSRSxe9JEsaXnJxTsYA6sa78wN",45902386,800,FALSE,137122,1,1,1,1,1,1,1,1,1,1,1,1,1,1,1,0,1,1,1,1,1,1,1,1,1,1,1,1,1,1,1,1,0,0,1,1,0,0,0,1,34
"lTh1ykpAgcGVO8qOiXgNfoWhTG",1571772,38,FALSE,259096,1,1,1,1,1,1,1,1,1,1,1,1,1,1,1,0,1,1,1,1,1,1,1,1,1,1,1,1,1,1,1,1,0,0,1,1,1,1,1,1,37
"lUQwxyowJ9bWeAVn3KwO9BJ736",2312838,749,FALSE,125630,1,1,1,1,1,1,1,1,1,1,1,1,1,1,1,0,1,1,1,1,1,1,1,1,1,1,1,1,1,1,1,1,1,1,1,0,1,1,1,1,38
"lVfbuT3fVkOA73LEbWXr8Ki3fY",1158680,392,FALSE,167605,1,1,1,1,1,1,1,1,1,1,1,1,1,1,1,0,1,1,1,1,1,1,1,1,1,1,1,1,1,1,0,1,1,1,1,1,0,0,0,0,34
"lW3WqF9SMh5DBwfmBoWSs0RuIv",253003,13,FALSE,213885,1,1,1,1,1,1,1,1,1,1,1,1,1,1,1,0,1,1,1,1,1,1,1,1,1,1,1,1,1,1,1,1,1,1,1,1,1,1,1,1,39
"lWftkAnOIE0JbPvz59jZppG5Wo",1158074,166,FALSE,122807,1,1,1,1,1,1,1,1,1,1,1,1,1,1,1,0,1,1,1,1,1,1,1,1,1,1,1,1,1,1,1,1,1,1,1,1,1,1,1,1,39
"LyEsVUuqpS8Oj9FRnPbkRePtFv",336258,14,FALSE,307459,1,1,1,1,1,1,1,1,1,1,1,1,0,1,1,0,1,1,1,1,1,1,0,1,0,1,1,1,0,0,1,0,0,1,1,0,1,1,0,0,29
"m4CLQjvrSXA0vg0pvRQBbifEAa",172714717,541,FALSE,104666,1,1,1,1,1,1,1,1,1,1,1,1,1,1,1,0,1,1,1,1,1,1,1,1,1,1,1,1,1,1,1,1,1,1,1,0,0,0,0,1,35
"M4GqMj5jrdYlCXy6FxCAsR932Q",2182480,1014,FALSE,211224,1,1,1,1,1,1,1,1,1,1,1,1,1,1,1,0,1,1,1,1,1,1,1,1,1,1,1,1,1,1,1,1,1,1,1,1,1,1,1,1,39
"m66h5ygbqGxkdNNPpf2aAyJLAa",3186400,216,FALSE,185671,1,1,1,1,1,1,1,1,1,1,1,1,1,1,1,0,1,1,1,1,1,1,1,1,1,1,1,1,1,1,1,1,1,1,1,1,0,0,0,0,35
"M6opWzpVTUyrLAs2x82Gj65eLX",615670,39,FALSE,244432,1,1,1,1,1,1,1,1,1,1,1,1,1,1,1,0,1,1,1,1,1,1,1,1,1,1,1,1,1,1,1,1,0,1,1,1,1,1,1,1,38
"M8XnbeQb7qiTTNcsG1gJlNRQtO",3624042,104,FALSE,141130,1,1,1,1,1,1,1,1,1,1,1,1,1,1,1,0,1,1,1,1,1,1,1,1,1,1,1,1,1,1,1,1,1,1,1,1,0,0,1,1,37
"m98IzE8NkCKtX41pm5ghso5imq",1746296,53,FALSE,203147,1,1,1,1,1,1,1,1,1,1,1,1,1,1,1,0,1,1,1,1,1,1,1,1,1,1,1,0,1,1,1,1,1,1,1,1,1,0,0,0,35
"m99p8a3QerMeBm70oBf9qAKTod",4334531,1227,FALSE,172126,1,1,1,1,1,1,1,1,1,1,1,1,1,1,1,0,1,1,1,0,1,1,1,1,1,1,1,1,1,1,0,1,0,1,1,0,1,1,0,0,33
"m9IoTaFSm6H31kbkw8ZFFltZv4",239504,13,FALSE,210686,1,1,1,1,1,1,1,1,1,1,1,1,1,1,1,0,1,1,1,1,1,1,1,1,1,1,1,1,1,1,0,1,1,1,1,1,0,1,0,0,35
"Mc7pBTZkbgZu1uHCFwtV7VHPzj",2307172,572,FALSE,179641,1,1,1,1,1,1,1,1,1,1,1,1,1,1,1,0,1,1,1,1,1,1,1,0,1,0,0,0,0,1,0,1,1,0,1,0,0,0,0,0,27
"mDtc57ds9iFYfe7Hm8UDOejAem",30966832,1230,FALSE,187009,1,1,1,1,1,1,1,1,1,1,1,1,1,1,1,0,1,1,1,1,1,1,1,1,1,1,1,0,1,1,1,1,1,0,0,1,1,0,0,0,33
"MgPWkvZHGB39avm9KdHZ8BQt5n",4615505,661,FALSE,396819,1,1,1,1,1,1,1,1,1,1,1,1,1,1,1,0,1,1,1,1,1,1,1,1,1,1,1,1,1,1,1,1,1,1,1,1,1,1,1,1,39
"mGUCrL4Wut2zBLIMzAtJYSbHvR",1515120,103,FALSE,222540,1,1,1,1,1,1,1,1,1,1,1,1,1,1,1,0,1,1,1,1,1,1,1,1,1,1,1,1,1,1,1,1,1,1,1,1,1,1,1,1,39
"MJcaQEDvKS3luKBcUJmNHb58jp",1419338,947,FALSE,214462,1,1,1,1,1,1,1,1,1,1,1,1,1,1,1,0,1,1,1,1,1,1,1,1,1,1,1,1,1,1,1,1,1,1,1,1,1,1,1,1,39
"MlNpRIxNr4Q6nchHYxH76k6sm3",2072572,182,FALSE,212715,1,1,1,1,1,1,1,1,1,1,1,1,1,1,1,0,1,1,1,1,1,1,1,1,1,1,1,1,1,1,0,1,1,0,1,0,1,1,1,0,35
"mlTrilKh1Q0bacCcRwttPOFkra",3964855,1173,FALSE,156137,1,1,1,1,1,1,1,1,1,1,1,1,1,1,1,0,1,1,1,1,1,1,1,1,1,1,1,1,1,1,1,1,0,1,1,0,1,0,1,0,35
"MmAqPOgUf36icSVvwPg3VAFo8M",3557321,853,FALSE,257586,1,1,1,1,1,1,1,1,1,1,1,1,1,1,1,0,1,1,1,1,1,1,1,1,1,1,1,1,1,1,0,1,0,1,1,1,1,1,1,0,36
"mn70LAqvULFcZdWtlSOewZdYKQ",4269344,255,FALSE,349301,1,1,1,1,1,1,1,1,1,1,1,1,1,1,1,0,1,1,1,1,1,1,1,1,1,1,1,1,1,0,1,0,1,1,0,0,1,0,1,1,34
"mnw2MP9zpgP7Q3VSw1uI8TG0Ub",5125249,1245,FALSE,421997,1,1,1,1,1,1,1,1,1,1,1,1,1,1,1,0,1,1,1,1,1,1,1,1,1,1,1,1,1,1,1,1,1,1,1,1,1,1,1,1,39
"MOFQIoGqXvUMrK310CfS3NN78J",218426,27,FALSE,106837,1,1,1,1,1,1,1,1,1,1,1,1,1,1,1,0,1,1,1,1,1,1,1,1,1,1,1,1,1,0,0,1,0,0,1,0,1,0,0,0,31
"Mp6nyOq30gOhHNq69pKuuq4u56",3838265,760,FALSE,191624,1,1,1,1,1,1,1,1,1,1,1,1,1,1,1,0,1,1,1,1,1,1,1,1,1,1,1,1,1,1,1,1,0,1,1,1,1,1,1,1,38
"mpk7nn4iYcrnDBleS2h8h92ZjM",6763778,326,FALSE,156557,1,1,1,1,1,1,1,1,1,1,1,1,1,1,1,0,1,1,1,1,1,1,1,1,1,1,1,1,1,1,1,1,1,1,1,1,0,1,1,1,38
"mPKkz4EXg9Dp7Nf3ADD9t97QNg",1157865,669,FALSE,127200,1,1,1,1,1,1,1,1,1,1,1,1,1,1,1,0,1,1,1,1,1,1,1,1,1,1,1,1,1,1,0,1,0,1,1,1,1,0,0,1,35
"mPst5si58TYGbHcapmVznGPjNs",5203326,1236,FALSE,166444,1,1,1,1,1,1,1,1,1,1,1,1,1,1,1,0,1,1,1,1,1,1,1,1,1,1,1,1,1,1,1,1,0,0,0,0,1,0,1,0,33
"mRky0EoqfAjSkGXCec08zizC1Q",2895270,874,FALSE,132580,1,1,1,1,1,1,1,1,1,1,1,1,1,1,0,0,1,1,1,1,1,1,1,1,1,0,1,1,1,1,0,1,1,1,1,0,0,0,0,0,31
"MRR9jrOlCjMQWc7pisrubRConZ",5409413,1243,FALSE,170531,1,1,1,1,1,1,1,1,1,1,1,1,1,1,1,0,1,1,1,1,1,1,1,1,1,1,1,1,1,1,0,1,0,1,1,0,1,0,1,0,34
"MSAyv79bVroqO4GfmgzfqA7Bhp",840361,52,FALSE,151522,1,1,1,1,1,1,1,1,1,1,1,1,1,1,1,0,1,1,1,1,1,1,1,1,0,1,1,1,1,0,0,1,0,1,1,0,1,0,1,0,32
"MULkyWJONBTsSO3p605BsqDPtV",3399512,1143,FALSE,150504,1,1,1,1,1,1,1,1,1,1,1,1,1,1,1,0,1,1,1,1,1,0,1,1,1,1,1,1,1,1,1,1,0,1,1,0,1,0,0,0,33
"mVc6GDjwzVL77t4jCVFDU8J1lE",3018561,1127,FALSE,169832,1,1,1,1,0,1,1,1,1,1,1,1,1,1,1,0,1,1,1,1,1,1,1,1,1,1,1,1,1,1,1,1,1,0,1,1,1,0,1,0,35
"MvrGgZJv1myNfed00vQL0LXw4U",4192440,862,FALSE,155947,1,1,1,1,1,1,1,1,1,1,1,1,1,1,1,0,1,1,1,1,1,1,1,1,1,1,1,1,1,1,1,1,0,0,1,1,0,0,0,0,33
"mWTxYWVcW36ErK1bpHcFbcXWbS",86564842,1226,FALSE,277171,1,1,1,1,1,1,1,1,1,1,1,1,1,1,1,0,1,1,1,1,1,1,1,1,1,1,1,1,1,1,1,1,1,1,1,1,0,1,1,1,38
"mxqn2JfwLCRA0pIOIEnLTxxLzG",4155655,750,FALSE,234742,1,1,1,1,1,1,1,1,1,1,1,1,1,1,1,0,1,1,1,1,1,1,1,1,1,1,1,1,1,1,0,1,1,1,1,1,1,0,0,0,35
"MZG2W0Y8pPJODMBN2T4GGoe8cU",5103205,1256,FALSE,150438,1,1,1,1,1,1,1,1,1,1,1,1,1,1,1,0,1,1,1,1,1,1,1,1,1,1,1,1,1,1,1,1,0,1,1,0,1,1,0,1,36
"N0g4ThkNi5uzTjmm3iSULR3qCr",3797442,550,FALSE,175233,1,1,1,1,1,1,1,1,1,1,1,1,1,1,1,0,1,1,1,1,1,1,1,1,1,1,1,1,1,1,1,1,1,1,1,1,1,0,1,1,38
"N131zSWY0X3Qg2VRGOpwQkj82S",18812375,1245,FALSE,113146,1,1,1,1,1,1,1,1,1,1,1,1,1,1,1,0,1,1,1,1,1,1,1,1,1,1,1,1,1,1,0,1,1,1,1,0,1,0,0,0,34
"N2ZEdEvsWKUISu6XYATb9RVv8m",158506878,1261,FALSE,145623,1,1,1,1,1,1,1,1,1,1,1,1,1,1,1,0,1,1,1,1,1,1,1,1,1,1,1,1,1,1,0,1,0,1,1,1,0,1,0,0,34
"n43iSH5SP97EkAIOkyEbKkHxgw",3022068,493,FALSE,267794,1,1,1,1,1,1,1,1,1,1,1,1,1,1,1,0,1,1,1,1,1,1,1,1,1,1,1,1,1,1,0,0,1,0,0,0,1,0,0,0,31
"N4cI5F1rffqm0mejbjuY5o1LX8",4150959,1394,FALSE,117913,1,1,1,1,1,1,1,1,1,1,1,1,1,1,1,0,1,1,1,1,1,1,1,1,1,1,1,1,1,0,0,1,0,0,1,0,0,0,0,0,30
"N4RHtA8KpXQrWAtlg1FJPQPJyt",45594819,1152,FALSE,137332,1,1,1,1,1,1,1,1,1,1,1,1,1,1,1,0,1,1,1,1,1,1,1,1,0,0,1,0,1,1,1,1,1,0,0,1,1,1,0,0,32
"n5wiwDAtYpfu4TG2697NLC2fHH",797612,25,FALSE,119540,1,1,1,1,1,1,1,1,1,1,1,1,1,1,1,0,1,1,1,1,1,1,1,1,1,1,1,1,1,1,1,1,1,1,1,1,1,0,1,1,38
"n6xrzXKYc2i6SFNJ6KJgzuIlj3",3394395,587,FALSE,165259,1,1,1,1,1,1,1,1,1,1,1,1,1,1,1,0,1,1,1,1,1,1,1,1,1,1,1,1,1,1,1,1,0,1,1,0,0,0,1,0,34
"NAY8S9wc0Hce6Qs2rVP012ZCYd",4973726,1201,FALSE,175265,1,1,1,1,1,1,1,1,1,1,1,1,1,1,1,0,1,1,1,1,1,1,1,1,1,1,1,1,1,1,1,1,1,1,0,0,1,0,0,1,35
"nbPDefRLT3nbcTJSTTxKQVpf8K",2033013,669,FALSE,343781,1,1,1,1,1,1,1,1,1,1,1,1,1,1,1,0,1,1,1,1,1,1,1,1,1,1,1,1,1,1,0,1,1,1,0,1,0,1,1,1,36
"nCHVPuCDPwhNze2RXJ7DWy4O8f",3802334,542,FALSE,287068,1,1,1,1,1,1,1,1,1,1,1,1,1,1,1,0,1,1,1,1,1,1,1,1,1,1,1,1,1,1,1,1,1,1,1,1,1,0,0,1,37
"NckCQMLhlfG7tsv52qUVT4hJ8k",4227049,1250,FALSE,122281,1,1,1,1,1,1,1,1,1,1,1,1,1,1,1,0,1,1,1,1,1,1,0,1,1,0,1,1,1,1,0,1,0,1,1,1,1,0,0,0,32
"NdoT2gRnhx8ipnlkwTy4GmOaf2",3206388,831,FALSE,149364,1,1,1,1,1,1,1,1,1,1,1,1,1,1,1,0,1,1,1,0,1,1,1,1,1,1,1,1,1,1,0,0,0,1,1,1,0,1,0,0,32
"ne7Hyk7IO8F1ifDK3iXWAkwLsE",82321449,1070,FALSE,136257,1,1,1,1,1,1,1,1,1,1,1,1,1,1,1,0,1,1,1,1,1,1,1,1,0,1,1,1,1,0,0,1,0,1,1,1,0,0,0,0,31
"nEeW8YuLxLWEEolURfsZTJOT9Y",379124,20,FALSE,145287,1,1,1,1,1,1,1,1,1,1,1,1,1,1,1,0,1,1,1,1,1,1,1,1,1,1,1,1,1,1,1,1,0,1,1,1,0,0,0,1,35
"NhmmExb85KSV4R15kHjEGbc7oA",2408575,633,FALSE,208815,1,1,1,1,1,1,0,1,1,1,1,1,1,1,1,0,1,1,1,1,1,1,1,1,1,1,1,1,1,0,0,0,0,0,1,0,0,0,0,1,29
"NI5IAMfkdgPnc86pwJoPCIiwca",90342833,1089,FALSE,213904,1,1,1,1,1,1,1,1,1,1,1,1,1,1,1,0,1,1,1,1,1,1,1,1,1,1,1,1,1,1,0,1,0,1,1,0,0,0,0,0,32
"niRTlHXPxzqK0H1JyEgwZc0UIG",2278693,1169,FALSE,144036,1,1,1,1,1,1,1,1,1,1,1,1,1,1,1,0,1,1,1,1,1,1,1,1,1,1,1,1,1,0,0,1,1,0,0,0,0,0,0,0,30
"nJj9hZhKFBkrQdYIiB38jD8mim",4101553,1223,FALSE,267601,1,1,1,1,1,1,1,1,1,1,1,1,1,1,1,0,1,1,1,1,1,1,1,1,1,1,1,1,1,1,0,0,0,1,1,1,1,0,0,0,33
"NKYnMs959z4MohQvtvXVeD8sA1",3766699,1000,FALSE,122374,1,1,1,1,1,1,1,1,0,1,1,1,1,1,1,0,1,1,1,1,1,1,1,1,1,1,1,1,1,0,0,1,1,0,1,0,1,0,1,0,32
"nLcCoQGeZGHMn89ANPQiPSAZLh",239351,13,FALSE,209464,1,1,1,1,1,1,1,1,1,1,1,1,1,1,1,0,1,1,1,1,1,1,1,1,1,1,1,1,1,1,1,1,1,1,0,0,0,0,0,0,33
"NlfdIksPxMRRDr9YsUv5E5SRcd",416367,26,FALSE,172578,1,1,1,1,1,1,1,1,1,1,1,1,1,1,1,0,1,1,1,1,1,1,1,1,1,1,1,1,1,1,1,1,0,1,1,1,0,0,1,1,36
"nMOiirhSWpCsaXpbmwDx7SKYos",249348155,261,FALSE,141928,1,1,1,1,1,1,1,1,1,1,1,1,1,1,1,0,1,1,1,1,1,1,1,1,1,1,1,1,1,1,1,1,1,1,1,1,1,0,0,0,36
"nnrUzOeOCZAlk8s2gaW11X1M3d",2442267,594,FALSE,137505,1,1,1,1,1,1,1,1,1,1,1,1,1,1,1,0,1,1,1,1,1,1,1,1,1,1,1,1,1,1,0,1,0,0,0,0,1,1,0,0,32
"NnU30aP1iimkbRSDUItEnQ337F",4373023,1124,FALSE,286806,1,1,1,1,1,1,1,1,1,1,1,1,1,1,1,0,1,1,1,1,1,1,1,1,1,1,1,1,1,1,1,1,1,1,1,1,1,1,1,1,39
"nNuhbJSzCbj4G73zWl6I4xraUF",492539,28,FALSE,168790,1,1,1,1,1,1,1,1,1,1,1,1,1,1,1,0,1,1,1,1,1,1,1,1,1,1,1,1,1,1,0,1,0,1,1,0,1,0,0,1,34
"NOKx5K7OIK1wtCOnDxdvHtRqOi",680091,44,FALSE,98803,1,1,1,1,1,1,1,1,1,1,1,1,0,1,1,0,1,1,0,1,1,1,1,1,0,1,1,1,0,1,0,0,0,0,1,0,0,0,0,1,27
