"session_id","session_restart_id","time_elapsed","trial_index","custom_timer_ended_trial","rt","crt_1","crt_2","crt_3","crt_4","crt_5","crt_6","crt_7","crt_correct_1","crt_correct_2","crt_correct_3","crt_correct_4","crt_correct_5","crt_correct_6","crt_correct_7","crt_correct_mean"
"0AJe17yTnscnQdDkkzrQujSpwV","K2CT0IsLiI8W0lOPyrwxmR5FD0",5727938,174,FALSE,178292,"5 cents","5 minutes","24 days","4 days","29 students","10 dollars","has lost money.",1,1,0,1,1,0,1,0.714285714285714
"0cIniih0zGVLugJAhIvoynm7SN","0I8218AoreLXbxA6yAekp7UbkT",794270,55,FALSE,232207,"10 cents","100 minutes","12 days","4 days","30 students","20 dollars","is ahead of where he began.",0,0,0,1,0,1,0,0.285714285714286
"0DARnsbleA8l9r84MLWLQDcr2A","GIX3vnJZYYz5wdQ6jTLtFRjehq",2424067,94,FALSE,219725,"5 cents","5 minutes","47 days","9 days","30 students","30 dollars","is ahead of where he began.",1,1,1,0,0,0,0,0.428571428571429
"0DEZ1s0f0nL0RnrJSeHg0aGp5O","kThZ34Ul9ItYv63Kq24BkXD4Mc",3579659,481,FALSE,158740,"5 cents","5 minutes","47 days","4 days","29 students","20 dollars","has lost money.",1,1,1,1,1,1,1,1
"0gUy8npz5GjwfN9oGmScOumKJ6","sIu0lEnWHZ3BBI2MCi8l8qBqGF",1402587,623,FALSE,107499,"10 cents","20 minutes","47 days","12 days","1 student","0 dollars","is ahead of where he began.",0,0,1,0,0,0,0,0.142857142857143
"0GwhdS5QTk1z6AOW2zROrpS4Dz","DrAu4SiCMUkIAmphOduaJOnA4G",3794776,1106,FALSE,133131,"10 cents","100 minutes","24 days","3 days","30 students","20 dollars","is ahead of where he began.",0,0,0,0,0,1,0,0.142857142857143
"0iDjEfaVVovRIRwOd2LRACKp6p","aKZw5z25YMbW64nSw0X5ra3uxh",5238317,1295,FALSE,165728,"5 cents","100 minutes","47 days","4 days","29 students","0 dollars","has lost money.",1,0,1,1,1,0,1,0.714285714285714
"0j4k6YJS8JEFyFDvqdEyTmAoHU","xuocOex2iQbLbBRWGxFPDtui0i",5866240,851,FALSE,255394,"10 cents","5 minutes","47 days","4 days","30 students","10 dollars","has lost money.",0,1,1,1,0,0,1,0.571428571428571
"0JATTVloQDUPcURXgFRCR2xTNZ","RZUk5w1f3RbZa8VtMaZ6Cs85MS",724308,40,FALSE,165863,"10 cents","100 minutes","24 days","9 days","30 students","10 dollars","has broken even in the stock market.",0,0,0,0,0,0,0,0
"0jse7la9qJsHrckhn7FWUDhLOi","kfA9TAcQYnPRS8SfE3ghlX6uzC",3620846,695,FALSE,218745,"10 cents","100 minutes","47 days","4 days","30 students","0 dollars","has lost money.",0,0,1,1,0,0,1,0.428571428571429
"0MKKSANshRTeskZx0TrUZtDeuY","Yd655r4YqJuAxPgAdFleuh51d9",2362714,754,FALSE,185512,"5 cents","5 minutes","47 days","4 days","29 students","20 dollars","has lost money.",1,1,1,1,1,1,1,1
"0n2j2Y1nH0v16ERGCb74llMutm","LJxufVtfBDBg0vATItBhNfwFwT",102315429,1305,FALSE,205292,"10 cents","100 minutes","47 days","3 days","1 student","0 dollars","has lost money.",0,0,1,0,0,0,1,0.285714285714286
"0NDXuhn5pY8iG9LkLzwpnpkmsU","HNkFhMwVGNWKJaEXKMyv3aCKCY",2985152,1192,FALSE,174157,"5 cents","5 minutes","47 days","4 days","29 students","20 dollars","has lost money.",1,1,1,1,1,1,1,1
"0PtrKyW9Qq4OrbYnTINnC15Quo","kqwo28VojGfDs8eOwx1q5kKbqs",3094859,1262,FALSE,93983,"10 cents","100 minutes","36 days","9 days","15 students","10 dollars","is ahead of where he began.",0,0,0,0,0,0,0,0
"0Q3B6QXM9FjB9K71ctmP088i3r","PwtMho2O9VEzbDGYugKK7qfJG8",4325486,646,FALSE,229162,"5 cents","5 minutes","12 days","9 days","29 students","20 dollars","has lost money.",1,1,0,0,1,1,1,0.714285714285714
"0Qe0NO7DVDiFBjxwEPx3EWpX8x","9vDTobZqpa7cyq4e685ZdjSRr2",3067680,739,FALSE,88410,"10 cents","100 minutes","24 days","9 days","29 students","20 dollars","has lost money.",0,0,0,0,1,1,1,0.428571428571429
"0r6s9iLCLLkfi2hIZx5Vsdz5Og","TtpuFQNyiwdqdQe5yWkCQRWUhE",1996114,605,FALSE,270481,"10 cents","100 minutes","24 days","4 days","30 students","10 dollars","is ahead of where he began.",0,0,0,1,0,0,0,0.142857142857143
"0rkdaOab6xHfN7wjdrqwof6SEZ","18GjupZLVDr6587OqOPAqa1lvA",1314639,150,FALSE,169404,"5 cents","5 minutes","47 days","4 days","29 students","20 dollars","has lost money.",1,1,1,1,1,1,1,1
"0ry0GXGC6ZGkE23J4k14skcsHW","hYTM6byvgdtCFWjXgoqJCy4U6k",3957092,782,FALSE,227380,"10 cents","100 minutes","47 days","4 days","29 students","30 dollars","has lost money.",0,0,1,1,1,0,1,0.571428571428571
"0TFBuVyddzHaLR4Z1OBZ8OLdLZ","arqcoRW6M0LBrIZBxv7FETag35",2537796,778,TRUE,281013,"5 cents","5 minutes","47 days","4 days","30 students","0 dollars","has lost money.",1,1,1,1,0,0,1,0.714285714285714
"0TUU6KNqzeBrYHXqkJwawgPCqY","fLupaNFla9T582NFaTTYvxtrEv",3469991,856,FALSE,141250,"10 cents","100 minutes","24 days","4 days","30 students","20 dollars","is ahead of where he began.",0,0,0,1,0,1,0,0.285714285714286
"0WHg8qcj7I94A3oUQSPaqVanYX","UwuG2YHuAfkpCCas9ItpcwoY2p",1558295,1026,FALSE,140102,"10 cents","100 minutes","47 days","4 days","30 students","20 dollars","has lost money.",0,0,1,1,0,1,1,0.571428571428571
"10GbaHu243wpAgm4YLuLyNWbLV","YbBQx8vpNLVmgwJs3ep05cqmnb",175330,11,FALSE,148658,"10 cents","100 minutes","12 days","9 days","30 students","0 dollars","is ahead of where he began.",0,0,0,0,0,0,0,0
"12oh6FlSP6CWj4rowY8XpVi9ty","qB0pvEMcKBgzS8taCtjYLyZg8F",1616834,536,FALSE,104044,"10 cents","20 minutes","36 days","9 days","29 students","20 dollars","is ahead of where he began.",0,0,0,0,1,1,0,0.285714285714286
"150M9Gh86Ey9SqRsx0UPPggMkN","9I3aXs2csNmZdwthrGzoMigv2t",2567903,291,FALSE,219296,"10 cents","100 minutes","12 days","9 days","30 students","0 dollars","has broken even in the stock market.",0,0,0,0,0,0,0,0
"1aGQbwe2Q2beIWN1PTKfae5IG2","YAgojl9qpJ2VybrR5AKg2KsG9A",2398676,510,FALSE,85838,"5 cents","5 minutes","47 days","3 days","29 students","0 dollars","has lost money.",1,1,1,0,1,0,1,0.714285714285714
"1ALZ5uOIs5F8RvGZ3xmesJFtWC","GhXrxhjArMLMWLMHh6ue8V7dtx",365570513,564,FALSE,196178,"10 cents","5 minutes","12 days","4 days","15 students","20 dollars","has lost money.",0,1,0,1,0,1,1,0.571428571428571
"1eaHN8Pl6BP2COQOcd9WXMKoSj","pvN4j4OxoryztM0vIWr9G5tevE",3331189,1152,FALSE,247471,"5 cents","5 minutes","47 days","4 days","29 students","20 dollars","has lost money.",1,1,1,1,1,1,1,1
"1eOPl7SvGPvdQ1oAH8RH5igpCM","AzzyIdA0bWIzIGXvHPZNwvQQqJ",2940667,234,FALSE,105693,"5 cents","5 minutes","24 days","4 days","29 students","20 dollars","has lost money.",1,1,0,1,1,1,1,0.857142857142857
"1GzcKqUhkoccdTdKcWOwKBiZly","WnaCiktbnd9gusuzL5Do9r76Gj",1656782,152,TRUE,281002,"5 cents","20 minutes","24 days","4 days","29 students","0 dollars","has lost money.",1,0,0,1,1,0,1,0.571428571428571
"1hz1kVjqIX5xpI8NmyGlNEYmUB","Cyt76GkcZNixw2TXXPdf7WgThY",219186,11,FALSE,193613,"5 cents","5 minutes","47 days","4 days","15 students","20 dollars","has lost money.",1,1,1,1,0,1,1,0.857142857142857
"1ILqAdEwHzFzo7m8TqJW9kesyb","Ij4hUVk090Odu2MTvcXAbOv3ix",82340992,637,FALSE,198046,"10 cents","100 minutes","47 days","4 days","30 students","0 dollars","has lost money.",0,0,1,1,0,0,1,0.428571428571429
"1KoESoRPlfSTBYVri98fhC3YRW","iFkPmkji9r72Cv4aWmH0uCUWjn",3898799,278,FALSE,192171,"10 cents","100 minutes","47 days","3 days","1 student","10 dollars","is ahead of where he began.",0,0,1,0,0,0,0,0.142857142857143
"1Pe9x9yqTZv1pgTsRNpo2zRQpC","H4RcvX0zdzcDRYBig9bu2MTndS",1731146,662,FALSE,262911,"5 cents","5 minutes","47 days","4 days","29 students","20 dollars","has lost money.",1,1,1,1,1,1,1,1
"1QXBE675rvNFx1h3UMWmN8YCK5","hQRtSy0WtRpBqsXtGBoSITtil4",4060415,1149,FALSE,182224,"5 cents","5 minutes","24 days","4 days","29 students","10 dollars","has lost money.",1,1,0,1,1,0,1,0.714285714285714
"1qXE7msJPud2zghs0WMBazegjc","TDJ9VEmNIzCwUBeMYYV3Ro39gR",3798038,840,FALSE,103012,"10 cents","500 minutes","24 days","9 days","1 student","30 dollars","is ahead of where he began.",0,0,0,0,0,0,0,0
"1VVvtTfxgSynTTEwaJcPf1u0gn","yrNqyzJBTp9Q7S8vfwA6gBcSpd",1628341,439,FALSE,228809,"10 cents","5 minutes","47 days","9 days","29 students","10 dollars","has lost money.",0,1,1,0,1,0,1,0.571428571428571
"1XXChrNBzIqhFB0g33oGeyYIy4","4iaAJzVJCocymQ6aPNl8NRwomM",1397670,71,FALSE,185535,"10 cents","100 minutes","24 days","9 days","1 student","0 dollars","is ahead of where he began.",0,0,0,0,0,0,0,0
"1yI1shgZoSp9zuHnav8CB9I7zR","r4SgEMAHBuk6rKgMPuDJQgCFWg",3847168,1191,FALSE,163591,"10 cents","5 minutes","47 days","9 days","30 students","0 dollars","has lost money.",0,1,1,0,0,0,1,0.428571428571429
"1Yl4QzSdVTD0JE1XZVhBNi10Zg","99gzYkZ22oA8GnfH9ybpcoXrsu",99471804,1270,FALSE,56189,"5 cents","100 minutes","47 days","4 days","29 students","20 dollars","has lost money.",1,0,1,1,1,1,1,0.857142857142857
"1ytoRyxVdfLL03kw6kCQ74p7bb","xzIHBxDqPRXkT0WXyiG4Sq4uuK",3725508,1136,FALSE,150533,"10 cents","5 minutes","47 days","4 days","29 students","20 dollars","has lost money.",0,1,1,1,1,1,1,0.857142857142857
"229xyGIaKNEWS0oeiN7biPTDrB","vzphpVwNe8iraL63m3Kfw4gFUU",5019726,1163,FALSE,245910,"10 cents","5 minutes","47 days","9 days","29 students","20 dollars","is ahead of where he began.",0,1,1,0,1,1,0,0.571428571428571
"22SLGyDjygVAernNoSd9funI0I","CpYNknKnH3IrhHxOd0jJpr2Us1",1849686,74,FALSE,213943,"10 cents","100 minutes","24 days","12 days","29 students","10 dollars","is ahead of where he began.",0,0,0,0,1,0,0,0.142857142857143
"23HD27W1197H9sHMwteQG7Jugr","fUNpEaW3HV1HefLf3vF4PykLPo",194709,11,FALSE,179651,"10 cents","5 minutes","12 days","3 days","1 student","10 dollars","is ahead of where he began.",0,1,0,0,0,0,0,0.142857142857143
"27AV1HkWznJc86h2ia7qzeaAan","kxMHw5kYSVZNK3Zman2rk9uj0k",317087,11,TRUE,281003,"10 cents","100 minutes","47 days","9 days","29 students","10 dollars",NA,0,0,1,0,1,0,NA,0.285714285714286
"2Ae7wnUWcndUGrOvagks7LUeMP","V8Y0lAQWawdtltpa1WVVmrmXsS",5328148,1167,FALSE,211955,"10 cents","5 minutes","47 days","4 days","29 students","20 dollars","has lost money.",0,1,1,1,1,1,1,0.857142857142857
"2aQZXR26aFtNfvbuKuJDBeA0yZ","2qoarANujkZkxFqpAMEho4qUBY",4295788,870,TRUE,281003,"5 cents","5 minutes","47 days","4 days","29 students","20 dollars",NA,1,1,1,1,1,1,NA,0.857142857142857
"2BbadaObQh5WnCZXiWm3e9vkVw","ObAyQHbQwR3n7nLEVmftuLVmpL",19499768,1267,FALSE,238403,"10 cents","5 minutes","47 days","4 days","30 students","10 dollars","has lost money.",0,1,1,1,0,0,1,0.571428571428571
"2BSQyVgbrBh50btdNl6EK3U8Cy","UM1BTNFAaDNDJ2uJ15OwXZmra1",1910622,179,FALSE,237084,"5 cents","5 minutes","12 days","4 days","29 students","20 dollars","has lost money.",1,1,0,1,1,1,1,0.857142857142857
"2bzzlY8CXwFaRLtIWXsNTF6zU1","IKEM6GQ7H1R0BcjekVgrTpoCB7",1238444,69,FALSE,272987,"5 cents","100 minutes","47 days","4 days","29 students","10 dollars","has lost money.",1,0,1,1,1,0,1,0.714285714285714
"2C5DtnlTohwdyo1AXzAqIOgcsh","LHjkHx5YN1aTjriO1mJyuudFlP",2790323,468,FALSE,211050,"5 cents","5 minutes","47 days","9 days","29 students","20 dollars","it cannot be determined.",1,1,1,0,1,1,0,0.714285714285714
"2COV6nUMhLRXTmoPS3pdjRr40b","N0lzFAOKLZyllMZDo6L2DVBO6n",4469800,1301,FALSE,91692,"10 cents","100 minutes","47 days","4 days","30 students","20 dollars","has broken even in the stock market.",0,0,1,1,0,1,0,0.428571428571429
"2HvcPyWqIgSow0Y7B5UNDR1o1g","Fp6edLV2ySQAwmlwRlzvinnCBJ",3710389,1155,TRUE,280994,"10 cents","100 minutes","24 days","4 days","15 students",NA,NA,0,0,0,1,0,NA,NA,0.142857142857143
"2iW5aedfeK1xomkAYXya3H6Sl7","cUxMBHqJjw8Iq2oFvb55dcmXI3",109047944,335,FALSE,163111,"10 cents","5 minutes","24 days","4 days","29 students","0 dollars","has lost money.",0,1,0,1,1,0,1,0.571428571428571
"2Kk30fz2ObcGfo1bH2DzHn6Kdl","zvQ2BiHNX4PZotzl1O7Zb0O4B6",287780,11,FALSE,251783,"10 cents","20 minutes","24 days","4 days","29 students","20 dollars","is ahead of where he began.",0,0,0,1,1,1,0,0.428571428571429
"2KuJ4f2LdhEueMmip3ipFVwITm","m7gXmgJZnJxerZyZVFQWD6F3eq",1181017,617,FALSE,84475,"10 cents","5 minutes","24 days","4 days","29 students","10 dollars","has lost money.",0,1,0,1,1,0,1,0.571428571428571
"2P9goQ7BC60ryfbXcJfqY5Opuk","xY2iwfG0Rx3E7eux1wQtzdyMBC",2526465,1106,FALSE,141180,"5 cents","5 minutes","12 days","4 days","29 students","10 dollars","has lost money.",1,1,0,1,1,0,1,0.714285714285714
"2pVh1uFFDJWhz3IJSvqAmaTMnX","rEGb0ot5xvPy3hZstHGaXzKyUs",550009,384,FALSE,17370,"10 cents","20 minutes","24 days","12 days","30 students","0 dollars","it cannot be determined.",0,0,0,0,0,0,0,0
"2RxrmlEWI5tDbOtzjbwEAV1wdg","4PStPg8SHkiYvA6vaaWpMDS8X3",4638684,608,FALSE,148956,"10 cents","100 minutes","24 days","4 days","30 students","30 dollars","is ahead of where he began.",0,0,0,1,0,0,0,0.142857142857143
"2V4h6MBZsrOMlfBo517hiPabDT","M78GHAZLdcuIzgTcLCXiIpUq6q",2074818,742,FALSE,75821,"10 cents","100 minutes","24 days","9 days","30 students","0 dollars","has lost money.",0,0,0,0,0,0,1,0.142857142857143
"2wcOT9TyDjeMHAd0dihaPhzZms","Ng2qHu6S3f9o5sMmxvF6ii2pea",1296992,134,FALSE,158927,"10 cents","100 minutes","36 days","12 days","30 students","10 dollars","is ahead of where he began.",0,0,0,0,0,0,0,0
"2xoSWRgzLkSHtysZ9l2uSeJsus","bdcRmIRSbuwuYvLJA8O1fYI3OR",1133272,607,FALSE,214492,"10 cents","100 minutes","24 days","12 days","1 student","20 dollars","it cannot be determined.",0,0,0,0,0,1,0,0.142857142857143
"2XR0GEl4UEUaqMuhK6wGW1Gdfz","mf0RdLZvy29Onk4C4M8rnlSqUV",3500455,182,FALSE,164958,"10 cents","100 minutes","47 days","4 days","15 students","0 dollars","is ahead of where he began.",0,0,1,1,0,0,0,0.285714285714286
"3aJYYCtUlwBOKdPuWblVLPbPUK","Bt6lhQ2MVXH6ShmFep7xLZPwjK",78445847,804,FALSE,262108,"5 cents","5 minutes","47 days","9 days","29 students","20 dollars","has lost money.",1,1,1,0,1,1,1,0.857142857142857
"3BQ7w8jykBKHoWlZHzEdN1LKU4","EZ3M4rPzKRbQAHaCng8gOUuDEK",5166418,725,FALSE,109614,"5 cents","5 minutes","47 days","4 days","29 students","10 dollars","has lost money.",1,1,1,1,1,0,1,0.857142857142857
"3C0LXeV1fmENxOlXZU8dx6rLEB","Wf6oMGvx8kl5AF0UDI8q4896Eo",458184,25,TRUE,281012,"5 cents","5 minutes","47 days","4 days","29 students","20 dollars",NA,1,1,1,1,1,1,NA,0.857142857142857
"3dGG48PRaoSzdv7B0BBnXDgZoa","BKKxNAhdK7Rjbeez4JvVGQgVoJ",157707,11,FALSE,151691,"5 cents","5 minutes","47 days","4 days","29 students","20 dollars","has lost money.",1,1,1,1,1,1,1,1
"3EKGRKPQYf90bnQAU7agBn8M6V","OMvrrbdS4FB49PQkXlSNUQg7aI",3302180,563,FALSE,161637,"10 cents","20 minutes","24 days","4 days","30 students","20 dollars","is ahead of where he began.",0,0,0,1,0,1,0,0.285714285714286
"3hmTdOWzZCh1B5qhXxcsJ2qkEC","qkFP7rr6XAcwbedWXZW9ZCFXhl",1253634,366,TRUE,281007,"1 cent","100 minutes","12 days",NA,"30 students",NA,NA,0,0,0,NA,0,NA,NA,0
"3jlB3p0ZI9RXNoCUWrzQ3p1ZYc","mBCcRbZBCB1gpDXuoEzrTdBXNm",318580,11,FALSE,215793,"10 cents","20 minutes","12 days","9 days","30 students","10 dollars","is ahead of where he began.",0,0,0,0,0,0,0,0
"3jQYQ831Xlb9ParmuzyQKinSnh","sQJBHwbwwjRqJyIQlBBwd3JDd9",5645351,1236,TRUE,280999,"5 cents","100 minutes","12 days","3 days","30 students","20 dollars","is ahead of where he began.",1,0,0,0,0,1,0,0.285714285714286
"3kKYkngpDSzd8j4JO9Jcrv8k2N","8vZr9nSWdk5RWqR2M8qJYhnIHQ",3849285,290,FALSE,117450,"5 cents","5 minutes","47 days","4 days","29 students","20 dollars","has lost money.",1,1,1,1,1,1,1,1
"3LRRXv5Icbu5QeYz1MF2LKqXUh","X7tkqtyGPeROiC8yXcFdFlrfke",5826054,754,FALSE,271931,"5 cents","5 minutes","47 days","9 days","29 students","10 dollars","has lost money.",1,1,1,0,1,0,1,0.714285714285714
"3lvwGLVQnnbJ8hO61nAT5y6qdy","rHTreMZXQH4oUVwwC4JcgWsu08",1977978,246,FALSE,140743,"10 cents","100 minutes","24 days","9 days","1 student","20 dollars","it cannot be determined.",0,0,0,0,0,1,0,0.142857142857143
"3p5indUn2ROHlINByZpdCvv22L","FrdINzQ9k2SDDPIJKcpajgJ0hB",5402896,469,FALSE,146128,"10 cents","100 minutes","24 days","9 days","30 students","20 dollars","is ahead of where he began.",0,0,0,0,0,1,0,0.142857142857143
"3rwyyQZIJVhQ382E1GzjzsCH02","JL9dwYwhx9pTtG4W6KiHJnWIXH",1382758,708,FALSE,54127,"5 cents","5 minutes","47 days","4 days","29 students","20 dollars","has lost money.",1,1,1,1,1,1,1,1
"3s7pwEin2Eh4Vyk77sU0kjMWQw","GxmRouUWyjJMzX9fDCuuJQTOZM",4453054,1292,FALSE,109147,"5 cents","5 minutes","47 days","4 days","29 students","20 dollars","has lost money.",1,1,1,1,1,1,1,1
"3syxFOXIuC1xwML91acGWFgcXc","8MyMNHa6LKbASrrft1ziItpFxm",2888505,1146,FALSE,145140,"10 cents","100 minutes","12 days","3 days","30 students","20 dollars","is ahead of where he began.",0,0,0,0,0,1,0,0.142857142857143
"3wJbrh511Zeogcw3PR1XdPIC58","JeCqWDwxYh4BhZjndPStHI8dtB",5513763,1265,FALSE,268429,"10 cents","20 minutes","12 days","4 days","29 students","20 dollars","has lost money.",0,0,0,1,1,1,1,0.571428571428571
"3XPL5kcRPmPLXeJEj9r1DYsv2D","DMwUnjOKoULm37IqRXJdUjMzkG",3331727,574,FALSE,219862,"5 cents","5 minutes","47 days","4 days","29 students","10 dollars","has lost money.",1,1,1,1,1,0,1,0.857142857142857
"3xwVTBI0H6OSdYOVfUxcXjQ2NE","tolhT5PM8Bz9EUvDfSaIxgVqlD",1549873,14,FALSE,136686,"10 cents","5 minutes","47 days","4 days","30 students","20 dollars","has lost money.",0,1,1,1,0,1,1,0.714285714285714
"3XYhQntc258l40a9UeC96yBJzr","7iSXaaSe64Tl4kb1CYIgSyAyJq",3075965,914,FALSE,154848,"10 cents","100 minutes","47 days","4 days","1 student","0 dollars","it cannot be determined.",0,0,1,1,0,0,0,0.285714285714286
"43vGYBdD3WcnyIXsnCDZz5msJ3","04o38h0pReFp5jyxS5tiIIPnCH",349305,78,FALSE,76022,"10 cents","100 minutes","24 days","9 days","30 students","20 dollars","is ahead of where he began.",0,0,0,0,0,1,0,0.142857142857143
"44vEiVAuS4DmjkjCtCvLGiymA2","5MU72OQbxm1WjPSXLxC3TCVtyI",1528827,86,FALSE,143649,"10 cents","100 minutes","12 days","9 days","29 students","10 dollars","has lost money.",0,0,0,0,1,0,1,0.285714285714286
"451n6pZI5GiN1qR4PbP6KGnLF2","osUC14pBPUNtXJFmECHaZJHyXS",6843539,1278,FALSE,65300,"5 cents","5 minutes","47 days","4 days","29 students","20 dollars","has lost money.",1,1,1,1,1,1,1,1
"45x40tJ4W8uTggU9u28Q43aWbQ","g4s59DhMxmTj4pwH7u3dRu9kWN",3416860,739,FALSE,126167,"10 cents","100 minutes","24 days","9 days","29 students","30 dollars","has lost money.",0,0,0,0,1,0,1,0.285714285714286
"47uaPHFRF0iGxwmd3FKxThlHHH","HaOvN1EmnJckmKV1oSjCumGS6K",4506130,853,FALSE,241803,"10 cents","500 minutes","24 days","9 days","1 student","20 dollars","is ahead of where he began.",0,0,0,0,0,1,0,0.142857142857143
"4ecEgE7yCOWxPl3k1D1crUH4rU","E4d6bLVaBI5LtM16ABgYhwvGYr",3099515,1225,FALSE,59095,"10 cents","100 minutes","24 days","3 days","30 students","0 dollars","is ahead of where he began.",0,0,0,0,0,0,0,0
"4EcG9uYErSLDEDnqUqLKM9dxiU","f2LPIxKRnkQ2E0xSdzJrLS4u6U",4110297,563,FALSE,167025,"5 cents","5 minutes","47 days","4 days","29 students","20 dollars","has lost money.",1,1,1,1,1,1,1,1
"4HNrzvFtqekstFOYvWscNgb9Tu","XprVyghR0JoolveTGCbcTuYTGi",5713731,1288,FALSE,126305,"5 cents","5 minutes","47 days","4 days","29 students","20 dollars","has lost money.",1,1,1,1,1,1,1,1
"4iALcDOGmbpudDaDiZ7KR5Wphq","5sv5wkr2hpKgLSwMYLrUSUE1Xe",1555736,450,FALSE,210441,"10 cents","500 minutes","24 days","4 days","30 students","0 dollars","has lost money.",0,0,0,1,0,0,1,0.285714285714286
"4KtD6RvbaF6icI06nZNMz6Oi5s","r0YHKUgR36YxFIK3imSlgDZKuw",4418771,1087,FALSE,174038,"10 cents","100 minutes","24 days","9 days","30 students","20 dollars","has lost money.",0,0,0,0,0,1,1,0.285714285714286
"4LZylWXfzXaQbafVxAtWgkWG67","XNXwnLBis5gFSacn5osZVi8QUb",5763712,1247,FALSE,237842,"10 cents","100 minutes","12 days","3 days","30 students","30 dollars","has lost money.",0,0,0,0,0,0,1,0.142857142857143
"4nzdFmrvKGHrE9x7gQXcbl1DsS","AQlNui6mbCLYzIVnmydjYm5pkC",3099496,1261,FALSE,273381,"5 cents","5 minutes","47 days","4 days","29 students","20 dollars","has lost money.",1,1,1,1,1,1,1,1
"4oGNTtlVbhAXyUsAX0wUaVgTJQ","qONEJcWOTeQDOIzPD1QJOgtbqM",5181461,596,FALSE,195928,"5 cents","100 minutes","47 days","3 days","29 students","0 dollars","has lost money.",1,0,1,0,1,0,1,0.571428571428571
"4OO3epGYqThUvZfSgkdUWjc0vC","iCImfifWv1CEqHROsyXkKZ0d25",161700,11,FALSE,155336,"5 cents","5 minutes","47 days","4 days","30 students","20 dollars","has lost money.",1,1,1,1,0,1,1,0.857142857142857
"4Rto8jb4srOfHiWpzLhOjISOAF","TKjmhq7qxaD5plBq8khkvfKQ83",4706649,649,FALSE,245813,"5 cents","5 minutes","47 days","4 days","29 students","10 dollars","it cannot be determined.",1,1,1,1,1,0,0,0.714285714285714
"4UoDqO8thtYyb47lk1fAiHmNaw","4x4z69qShdj1QcNSj4mz1KUUqz",2521557,822,FALSE,144501,"10 cents","100 minutes","24 days","4 days","30 students","10 dollars","has broken even in the stock market.",0,0,0,1,0,0,0,0.142857142857143
"4VclUTWS115NLiei93hFsHlfGu","c4O3N0nxw0XHIZdiRdI7NCVZ8O",1064870,72,FALSE,127176,"5 cents","5 minutes","47 days","4 days","29 students","20 dollars","has lost money.",1,1,1,1,1,1,1,1
"4XxGzMGWYIVRWTvr6dUzYN9APv","RvKQ6NX5peMaEw5rXtycRzHyuY",1794451,114,FALSE,217939,"5 cents","5 minutes","47 days","4 days","29 students","20 dollars","has lost money.",1,1,1,1,1,1,1,1
"510LSN0DqveJ9i8MnqjcDO3vbP","BqCOsjic8vEGqsYMRti6jCwWb5",3100064,273,FALSE,182485,"5 cents","5 minutes","47 days","4 days","29 students","20 dollars","has lost money.",1,1,1,1,1,1,1,1
"51DX0FU1DIyhqNHMoVjkBe0bsW","SmVjRFHITpC05JlvZQQiLawtox",4260569,1291,FALSE,146802,"10 cents","100 minutes","24 days","4 days","30 students","0 dollars","is ahead of where he began.",0,0,0,1,0,0,0,0.142857142857143
"553wcLDljYGhOHxIJX29hgs7NJ","fy6ThWPGocy5h5AySdatCCO08t",3266051,1067,FALSE,185946,"10 cents","5 minutes","47 days","4 days","29 students","20 dollars","has lost money.",0,1,1,1,1,1,1,0.857142857142857
"57sF8Hh90SXKv5hNiSNfmd5nMG","6N2PlO2tQvCsNIlk1mbEXMn1An",506559,29,FALSE,106828,"10 cents","20 minutes","12 days","4 days","30 students","10 dollars","is ahead of where he began.",0,0,0,1,0,0,0,0.142857142857143
"5A20LlzvgSN12Rv01z9ZqlXJah","bG0ytHVqEKXqkOUvSnJuJ3iCbk",1722272,433,FALSE,280693,"10 cents","100 minutes","47 days","4 days","29 students","20 dollars","has lost money.",0,0,1,1,1,1,1,0.714285714285714
"5bE3sCiJgvNomRdb1CaQQpx9A7","4TuXEbPbxHmU7yeqUMZMwdGSc3",3018831,118,FALSE,277258,"10 cents","100 minutes","24 days","4 days","29 students","10 dollars","has broken even in the stock market.",0,0,0,1,1,0,0,0.285714285714286
"5BIe2yy109OGqJVeqjcevZKswB","5QioaJPHYPxnA5kA1JUv5rcw8G",5885178,1293,FALSE,130892,"5 cents","5 minutes","47 days","9 days","29 students","20 dollars","has lost money.",1,1,1,0,1,1,1,0.857142857142857
"5C7Cg32dHA1eLCUSfAi69osPkX","5GIvtmxZyOjOuPvNU0LYyCn6u2",5203861,1250,FALSE,148867,"10 cents","100 minutes","24 days","9 days","15 students","10 dollars","is ahead of where he began.",0,0,0,0,0,0,0,0
"5dJkO59mpVE9kMyit8YbI9pDnK","JlKGLud9Yf3BALfjz2iPaurIrs",3918667,1291,FALSE,82064,"10 cents","100 minutes","47 days","4 days","30 students","0 dollars","is ahead of where he began.",0,0,1,1,0,0,0,0.285714285714286
"5ffTEJyCW9JSJnkAIj6yImyR9q","6oaLmT3zfrMpNyA6tDdTLSmgJY",1175315,149,TRUE,281018,"5 cents","20 minutes","47 days","4 days","29 students","0 dollars","has lost money.",1,0,1,1,1,0,1,0.714285714285714
"5hmgcb4aHkCP29mTehdJCorG2I","iyEGzWnVbYknVshiDoLaBOADQz",3960331,324,FALSE,224048,"5 cents","5 minutes","47 days","4 days","15 students","0 dollars","has lost money.",1,1,1,1,0,0,1,0.714285714285714
"5hNlQ6TqREn6RASdCF8thPcvWm","DPhurJFdaXQMeVO2E5WnKpq0o8",13532974,1290,FALSE,73576,"5 cents","100 minutes","47 days","9 days","29 students","10 dollars","has lost money.",1,0,1,0,1,0,1,0.571428571428571
"5kDjSNaI4vLPDlE8dmbOlhQHyf","SacuvgD0WxyThPWiBkN6X1Z2jR",1709925,589,FALSE,190210,"10 cents","5 minutes","47 days","4 days","29 students","20 dollars","has lost money.",0,1,1,1,1,1,1,0.857142857142857
"5Ph1AQ3uBmztW3H0OB4SepoSXR","6sMybrw4aS7K1tSIUF3UG8FZsr",3190747,805,FALSE,85219,"10 cents","100 minutes","24 days","4 days","15 students","10 dollars","has lost money.",0,0,0,1,0,0,1,0.285714285714286
"5rxIVDLCZM10RvzAIUj0f2Cvud","Vz8YVNctKCGy3YlcpDlc1pD7vM",5461592,1308,FALSE,202901,"9 cents","20 minutes","12 days","9 days","30 students","10 dollars","is ahead of where he began.",0,0,0,0,0,0,0,0
"5wa1wIIU8zPlHYwqj2CYSHt4nt","AXXoExNeJBPc2PmbyLTBUkz9CC",295024802,949,FALSE,163739,"10 cents","100 minutes","24 days","9 days","30 students","0 dollars","is ahead of where he began.",0,0,0,0,0,0,0,0
"5YduQPyBi6S3ROOKwikk5YzlDz","ylv4bo5p5Mc1hZ6fytBCLFBrCp",6373245,264,FALSE,137519,"1 cent","100 minutes","24 days","9 days","30 students","10 dollars","is ahead of where he began.",0,0,0,0,0,0,0,0
"61Z5Ug9IcOR0B021CVplo76kjs","KF2eEV9eZOmYrKV07jxDWpwWGl",160375,11,FALSE,137902,"10 cents","100 minutes","24 days","12 days","1 student","10 dollars","is ahead of where he began.",0,0,0,0,0,0,0,0
"643jrJu4Lo9g4WckcVJ2H03EbA","N3i2SIP9vjsyzt2JJAFrWXXpxp",3828935,1303,FALSE,153937,"10 cents","100 minutes","47 days","4 days","29 students","20 dollars","has lost money.",0,0,1,1,1,1,1,0.714285714285714
"69LOrE0xdtOoV8exbyUb8ROh0U","JAPL0nLtoMrOfbb33uHusVYbKz",4179743,1349,FALSE,139405,"10 cents","100 minutes","47 days","9 days","1 student","10 dollars","is ahead of where he began.",0,0,1,0,0,0,0,0.142857142857143
"6BOUROrxZffRYSR6BT9zKjjiRn","6bXRPSZcd8z5O3gKrWlndz6hbB",6879033,1118,FALSE,230698,"5 cents","5 minutes","24 days","4 days","29 students","0 dollars","has lost money.",1,1,0,1,1,0,1,0.714285714285714
"6dwUQExOUgGIR0COmNY5wsEabN","5TrygEx4RSmAgFjKMe0xNnEt5k",229447,11,FALSE,204272,"10 cents","5 minutes","47 days","3 days","29 students","20 dollars","has lost money.",0,1,1,0,1,1,1,0.714285714285714
"6FW1QtjilU522qyyltjR5dQfEI","FdPqkdRv6RLy4DuKPf6IawVrpE",5399467,1274,FALSE,243093,"5 cents","5 minutes","47 days","4 days","30 students","20 dollars","has lost money.",1,1,1,1,0,1,1,0.857142857142857
"6kkXpOr6zPjqKT4J3Ihksigzig","Ei2NoZukghXNQB25IV4KlJJMgg",5323687,1164,FALSE,267393,"5 cents","5 minutes","47 days","4 days","29 students","20 dollars","has lost money.",1,1,1,1,1,1,1,1
"6kMigYJ09mWqbQq9BH4Pt7k7Lh","0FN8gVLB0Y1rYK6cnUGrLF9ExJ",1010425,82,FALSE,223180,"10 cents","5 minutes","24 days","9 days","30 students","30 dollars","is ahead of where he began.",0,1,0,0,0,0,0,0.142857142857143
"6m8K6JghD1FbFW9zbR2bilXHEB","fxAGMQQo9HJkvbSljAHR7O7LlZ",2862663,276,FALSE,177245,"5 cents","5 minutes","47 days","4 days","29 students","30 dollars","has lost money.",1,1,1,1,1,0,1,0.857142857142857
"6MDIg2VUf1taBo8lYvUbUJgPFX","1u74jz6b2Mi72mBU66frTNo05m",5744204,1233,FALSE,166173,"10 cents","5 minutes","47 days","4 days","30 students","20 dollars","has lost money.",0,1,1,1,0,1,1,0.714285714285714
"6N2LDl2sL3JXrNC5Az2EjiOZUo","ykrWYb9wR1hZSbhUkxXVY5b8o7",2093207,1091,FALSE,115729,"10 cents","5 minutes","12 days","3 days","29 students","10 dollars","is ahead of where he began.",0,1,0,0,1,0,0,0.285714285714286
"6nA7LUk9AlZp9W0p78RYwfE47i","v3usdHyU7cA0gDyUKBo0ruRxMZ",5288979,1146,FALSE,205861,"10 cents","100 minutes","47 days","4 days","30 students","20 dollars","has lost money.",0,0,1,1,0,1,1,0.571428571428571
"6pk9Dh68e2rbMvZA6z39AHe1JZ","QCQq3yAc5dH2GGrB7w6QRhckQ1",270433,11,FALSE,245498,"10 cents","100 minutes","12 days","9 days","15 students","10 dollars","it cannot be determined.",0,0,0,0,0,0,0,0
"6v5twujpHxNZ6X17bRFSENqhdA","29yJwWdpqnQfPQHTT8iUamTWAp",379912,24,FALSE,178614,"5 cents","5 minutes","47 days","3 days","30 students","20 dollars","it cannot be determined.",1,1,1,0,0,1,0,0.571428571428571
"6vKJJXMtm6a1hxD37PpzhoQWN2","GyoU6N8fFTVAyWclchpZMJdCdf",3274604,655,FALSE,237645,"5 cents","5 minutes","47 days","4 days","29 students","10 dollars","has lost money.",1,1,1,1,1,0,1,0.857142857142857
"6zhC4c3WTQT4jq1bmiGAc8kdEp","DFizX5azGQ7VxdnULa9ZZIWct9",1811324,430,FALSE,223636,"10 cents","5 minutes","47 days","4 days","29 students","0 dollars","is ahead of where he began.",0,1,1,1,1,0,0,0.571428571428571
"706Vlequn1xVtMDQuj74diuKgv","W6l6s2zKLOBqv2mKlDjHOboltP",3375584,1169,FALSE,83099,"10 cents","100 minutes","24 days","4 days","15 students","30 dollars","it cannot be determined.",0,0,0,1,0,0,0,0.142857142857143
"71Ucn3GeHYI05HzPqf6ugXTMbj","ySpjTdw2RDxO9pFppASiVzMn1b",141897,11,FALSE,125003,"10 cents","5 minutes","24 days","9 days","30 students","10 dollars","is ahead of where he began.",0,1,0,0,0,0,0,0.142857142857143
"731cAAGSKqrJhVocBqYLY8kssK","Rw4yypi07FoB5pY5j4QZayUp5v",7945567,1307,FALSE,280022,"10 cents","20 minutes","24 days","3 days","29 students","10 dollars","it cannot be determined.",0,0,0,0,1,0,0,0.142857142857143
"74UDBHqQ7xudLfYbgMSoNPaAl4","wlQ6wSMbtkiSxugrARkly06TEg",1793018,509,FALSE,239255,"5 cents","20 minutes","47 days","4 days","30 students","20 dollars","has lost money.",1,0,1,1,0,1,1,0.714285714285714
"76GZtz0M3bLyuYX02nt9KvHKgE","up79tTbWl3Ktu1S5S5UBYZEyoC",3339647,624,FALSE,215344,"5 cents","20 minutes","47 days","4 days","29 students","30 dollars","has lost money.",1,0,1,1,1,0,1,0.714285714285714
"79tVyR7yCzEabFrAE5EhWSWZ4B","kS4aaASKpOnaLXqT7mBfc92RwE",857082,55,FALSE,119132,"5 cents","5 minutes","47 days","4 days","29 students","20 dollars","it cannot be determined.",1,1,1,1,1,1,0,0.857142857142857
"7b3hUBjQZXv90jM4PnwXdP9H59","aO2jrf913k2iEe4bCNWHKwkqYr",1255205,166,FALSE,255942,"5 cents","5 minutes","47 days","4 days","29 students","20 dollars","has lost money.",1,1,1,1,1,1,1,1
"7cnUS5huU3H9ok4xbHv3uRUqa1","oMgMt1MqKn4El9rCpl999YvNpG",58068231,700,FALSE,104509,"10 cents","100 minutes","24 days","4 days","30 students","10 dollars","has lost money.",0,0,0,1,0,0,1,0.285714285714286
"7cNXhAzXdNgP2EnxVff4i35dnI","sl5uzIpy82pvcCCjt1yyZSe86h",3014510,663,FALSE,250462,"10 cents","5 minutes","12 days","4 days","30 students","0 dollars","is ahead of where he began.",0,1,0,1,0,0,0,0.285714285714286
"7fsaWUPkudzXffRZrmxOnVh6xD","Z4IYRbJDZuC3LqrjO1dgvaTlwc",6402400,1292,FALSE,229135,"5 cents","100 minutes","12 days","9 days","30 students","30 dollars","has lost money.",1,0,0,0,0,0,1,0.285714285714286
"7FUp9TsEi6W8MHlPH0fbdm7Cxy","nkrHbCTtYi5KN3gtcn2dNDePdi",888561,371,FALSE,247599,"10 cents","100 minutes","24 days","4 days","29 students","20 dollars","has lost money.",0,0,0,1,1,1,1,0.571428571428571
"7HajIxTLL6CuGTHed8b6XR2MiA","ZpC8tSwcSqUMj3myK5mTtRwUkX",318539,11,FALSE,276355,"10 cents","5 minutes","47 days","9 days","30 students","10 dollars","has lost money.",0,1,1,0,0,0,1,0.428571428571429
"7HM647QPQpctNOK8vAmV7r9T8C","9LpfvzU7nZepAMqlUhbL7BDPQj",2858484,331,FALSE,127728,"5 cents","5 minutes","47 days","4 days","29 students","20 dollars","has lost money.",1,1,1,1,1,1,1,1
"7j0PHpDybyXNm4uow2nfBKnYby","UsF98re3rC47Ziv2kB2BHPRVEL",4260215,1306,FALSE,138702,"10 cents","100 minutes","24 days","9 days","30 students","10 dollars","is ahead of where he began.",0,0,0,0,0,0,0,0
"7jRZSOF3nCFvkzmrvTSMFGHDQW","R5LJ9wyfaq5GwFICP2SfOyNFPo",3507171,645,FALSE,82337,"10 cents","100 minutes","47 days","9 days","15 students","10 dollars","is ahead of where he began.",0,0,1,0,0,0,0,0.142857142857143
"7kQeVyNE3lFGSVXHX4wEVuLub7","0pFXXCDXhiMHimPrICbaK7hs5P",2343196,179,TRUE,281001,"5 cents","5 minutes","47 days","9 days","29 students","20 dollars","has lost money.",1,1,1,0,1,1,1,0.857142857142857
"7KSspWjO5CnJnCSXGvTJC9RLRC","Zd86CvObkGs5LOH2xb4Nl8MELA",380551,24,FALSE,127183,"10 cents","100 minutes","24 days","9 days","1 student","10 dollars","is ahead of where he began.",0,0,0,0,0,0,0,0
"7NLkSkL5iP5QQeEvy6DYeQpoSn","CzFSV4IhtH04lGNlEd0UjtEAQM",2134883,117,FALSE,161040,"10 cents","100 minutes","24 days","9 days","30 students","0 dollars","has lost money.",0,0,0,0,0,0,1,0.142857142857143
"7qt1y5XarZDoa56WF1XMiAU3wm","m5FH7jQWcC8y1F4mz2h8KLcc8z",4535843,715,FALSE,136271,"5 cents","100 minutes","47 days","9 days","30 students","20 dollars","has lost money.",1,0,1,0,0,1,1,0.571428571428571
"7qYmV2v0jT263LU6X5dE96PBGy","mJBs6rQFIpUUCoKq1pFIrlVXh9",2375547,242,FALSE,238072,"10 cents","5 minutes","47 days","4 days","1 student","0 dollars","has lost money.",0,1,1,1,0,0,1,0.571428571428571
"7rsMabuGmuIiZKSCYvam16Mfjx","uCSf8rGSA2cOsVTPSQjqa66xNG",3112886,821,FALSE,121856,"5 cents","5 minutes","12 days","9 days","29 students","10 dollars","it cannot be determined.",1,1,0,0,1,0,0,0.428571428571429
"7SUZwVJ2spKst1FBSmusTrBSjF","gGO8yqiGgpUoFiqywZZPOyn2xW",4382468,1182,FALSE,154334,"10 cents","100 minutes","24 days","4 days","15 students","30 dollars","is ahead of where he began.",0,0,0,1,0,0,0,0.142857142857143
"7tMw7LAY1qyDTvn3WVJxd30kxN","MsGdObGwmcZJWLp7qL4tPlgdS4",1950726,221,FALSE,101953,"10 cents","100 minutes","24 days","9 days","30 students","10 dollars","is ahead of where he began.",0,0,0,0,0,0,0,0
"7w41wg7s08bFPan88DiLGP3PKb","cfdJR054RNQALNRB76pdTHuDeL",1643464,511,FALSE,73574,"10 cents","100 minutes","24 days","3 days","29 students","10 dollars","has broken even in the stock market.",0,0,0,0,1,0,0,0.142857142857143
"81mLrAYxQHi8PVy1iQ6IygOrHL","3yK8fDHuOoPAUQXroBO2MTKyQx",5435123,1232,FALSE,124871,"10 cents","100 minutes","24 days","9 days","30 students","10 dollars","has lost money.",0,0,0,0,0,0,1,0.142857142857143
"8AOfTi9iCe42EzbV7LhL1nxHfL","jtxDKIuV5z3CYoc28oGaKLaArT",2723535,540,FALSE,274714,"10 cents","5 minutes","47 days","4 days","29 students","20 dollars","has lost money.",0,1,1,1,1,1,1,0.857142857142857
"8C2iE1Gag24cXX7PhMfGE5Bo9B","MwEbRGB44emTnPnWlqZqOu2D3P",2442857,1109,FALSE,90288,"10 cents","100 minutes","12 days","3 days","30 students","30 dollars","is ahead of where he began.",0,0,0,0,0,0,0,0
"8fCuJb6ezKFvmolsKHftQf92yZ","V3FQlKD265gKtRjicxpbMUzL0g",10299372,1149,FALSE,195169,"5 cents","5 minutes","47 days","4 days","29 students","20 dollars","has lost money.",1,1,1,1,1,1,1,1
"8GV7zBglW9lyzQThTZnkdsuV0k","ulmHBMgiXR5VjaHkGpnGtAhkCC",786393,41,FALSE,167817,"10 cents","5 minutes","47 days","4 days","30 students","20 dollars","has lost money.",0,1,1,1,0,1,1,0.714285714285714
"8jGFkrdu8z6SGY5VTBkW2Auevp","sFHq8Ad4CrNdo4Waez8q9UB9WF",2087431,474,FALSE,164086,"10 cents","100 minutes","24 days","3 days","30 students","20 dollars","has lost money.",0,0,0,0,0,1,1,0.285714285714286
"8KFV4NTIHJ1dlm6OGGLubO09rF","h6oDtu16IVRHtviflnH7g1059d",28593638,1046,FALSE,95064,"10 cents","100 minutes","24 days","9 days","30 students","10 dollars","is ahead of where he began.",0,0,0,0,0,0,0,0
"8lFevcd1ve2FCH5FguBXVQiABd","oeGxLGAHwp79XvaH09fIDfRoFL",525233288,1264,TRUE,281003,"5 cents","5 minutes","47 days","4 days","29 students","20 dollars","has broken even in the stock market.",1,1,1,1,1,1,0,0.857142857142857
"8Mb7Lxeu96PH8PMiwlvAoEhL6r","aKf5Twtl2QutmzYYVyAbzxQH6Q",3049479,801,FALSE,173303,"10 cents","5 minutes","24 days","3 days","29 students","20 dollars","has lost money.",0,1,0,0,1,1,1,0.571428571428571
"8rCMlU0J8L7AGldIlRujGA0Oss","NskOUga3jjxcGh5yQJuzEPhxg2",1334951,162,FALSE,156935,"5 cents","100 minutes","47 days","4 days","29 students","10 dollars","has lost money.",1,0,1,1,1,0,1,0.714285714285714
"8rP5Z7S00cYQZE85Dw9lP23uc8","dv9UnsAyVkETxSPK84t5NFdqyV",2610967,1179,FALSE,142713,"10 cents","100 minutes","24 days","4 days","1 student","20 dollars","has lost money.",0,0,0,1,0,1,1,0.428571428571429
"8sC4FDtOzUQ4KvBPqVJftzBDQq","SssPsmuvBOpFRVBEtzgiOU94cV",1141711,606,FALSE,274493,"10 cents","100 minutes","47 days","4 days","29 students","20 dollars","has lost money.",0,0,1,1,1,1,1,0.714285714285714
"8TGnfBzn2rHsg1i9Ek3O9Jp7uB","Sv6uuQ207v95B3g7q1aZyReC73",1885023,761,FALSE,162574,"10 cents","100 minutes","24 days","3 days","1 student","10 dollars","is ahead of where he began.",0,0,0,0,0,0,0,0
"8wwNFfMqU18VchI8E71p59Q9zY","srNnvzlGG3Uyo4kcValfmFjR6x",3092027,1205,FALSE,135642,"5 cents","100 minutes","24 days","12 days","1 student","30 dollars","is ahead of where he began.",1,0,0,0,0,0,0,0.142857142857143
"8YU8EgHRsZGZVxulWglJu9dwX3","2Z9jFQoNeFI0xBGgHzYetsNuCD",5119673,1277,FALSE,104554,"10 cents","100 minutes","24 days","9 days","30 students","0 dollars","is ahead of where he began.",0,0,0,0,0,0,0,0
"8YxnD0vxR9N40P3HSiXDKtaCPy","vpbIqa3TrcfsZEifSBWZAcxyFc",289897,11,FALSE,280341,"10 cents","100 minutes","24 days","4 days","29 students","10 dollars","is ahead of where he began.",0,0,0,1,1,0,0,0.285714285714286
"98aVkGv2xXnpLAoPAlDQttJdkV","djLjaIiHiJCINGNF0UBdZoXQD7",7466167,1289,FALSE,275774,"5 cents","5 minutes","47 days","4 days","29 students","20 dollars","has lost money.",1,1,1,1,1,1,1,1
"9aBqa8DA4POoR5Y4s1fftOPGaH","9RG3WPZY24fEA7isoVZIJXHb6y",3232519,1287,FALSE,113856,"5 cents","5 minutes","47 days","4 days","29 students","20 dollars","has lost money.",1,1,1,1,1,1,1,1
"9bufQbXswgOQC8jAelyONry0zu","WEreG36n9j4vBbbMZQv2lFwHzb",4495040,1304,FALSE,103180,"5 cents","5 minutes","47 days","4 days","29 students","20 dollars","has lost money.",1,1,1,1,1,1,1,1
"9d3d3ENpamwAca3On1NaNjnDnR","5RPkeWwrge4AJMCSjGfMoIRIvQ",3132168,564,FALSE,180589,"10 cents","100 minutes","24 days","12 days","1 student","20 dollars","has lost money.",0,0,0,0,0,1,1,0.285714285714286
"9f8Ud57CWnMvShQOLy5UZSdWrQ","Cjo3dDF6hkrwNWTE6PZLkyGY8X",6836211,1313,FALSE,164612,"5 cents","5 minutes","47 days","4 days","29 students","0 dollars","has lost money.",1,1,1,1,1,0,1,0.857142857142857
"9hbhgeLoonSwJ9P8FNpYZ4sRgN","gqcew35jkVbeWNH1Yu5lN7v3rD",307942,11,TRUE,282965,"10 cents","5 minutes","47 days","4 days","29 students","20 dollars",NA,0,1,1,1,1,1,NA,0.714285714285714
"9KsmhF7A1rEjtSqD9CHPqulc6j","kQvnbdVg1dNOGIhAshQ5QT911j",2030609,696,TRUE,281368,"5 cents","5 minutes","47 days","4 days","29 students","0 dollars","has lost money.",1,1,1,1,1,0,1,0.857142857142857
"9KZ0Ezq2JR4yh64hrAUzyJojad","Dnj6Xj8JV0oZh3i6HryfJWE8sD",10863503,1263,FALSE,157742,"5 cents","5 minutes","47 days","4 days","29 students","0 dollars","has lost money.",1,1,1,1,1,0,1,0.857142857142857
"9KzHTRBLHu5XLEzUNHiYHpR77h","D0Xydj9MfeBmAJl2cCNptY9Z7q",4400812,281,FALSE,208521,"5 cents","5 minutes","47 days","4 days","29 students","20 dollars","has lost money.",1,1,1,1,1,1,1,1
"9M98H0Uq9p2sH31Ly0ldwRUqEp","rSNV3NueMiia2WZZFU916e4wtH",198269,11,FALSE,107754,"5 cents","5 minutes","24 days","9 days","29 students","10 dollars","has lost money.",1,1,0,0,1,0,1,0.571428571428571
"9qP6fgxI3U4QqkwcqQX3cXDqqz","fzRfcvQfGjR736a4qbhkwz1CiP",1300506,945,FALSE,207175,"10 cents","100 minutes","47 days","4 days","30 students","10 dollars","has lost money.",0,0,1,1,0,0,1,0.428571428571429
"9sTbGRsDY6rgyQ6o55dHKj5nKw","XdnGzypyZBmmaiSpjqxJxam17m",834008,40,TRUE,281033,"5 cents","20 minutes","12 days","9 days","30 students","20 dollars","has lost money.",1,0,0,0,0,1,1,0.428571428571429
"9SXABxy6uPLt9F9nqDB2QZkgtg","KcrBmGUqjXPKaBg9GyKeHaosIC",4848543,829,TRUE,281008,"10 cents","5 minutes","47 days","4 days","30 students","30 dollars",NA,0,1,1,1,0,0,NA,0.428571428571429
"9sxjAk2slRoJstea6y1EBAR0KY","jHs9Ph7YBPPwCAusMsdjes1wau",294525,11,TRUE,281002,"5 cents","100 minutes","47 days","4 days","30 students","20 dollars",NA,1,0,1,1,0,1,NA,0.571428571428571
"9t3fEfZay2dhu3jmJRZsy9dFmZ","v392sojQLxBDlFiBPmfqRWiiPM",4543815,845,TRUE,281280,"5 cents","5 minutes","47 days","9 days","30 students","20 dollars","has lost money.",1,1,1,0,0,1,1,0.714285714285714
"9t8QSpce3XwhBI8DV2ISE31G7O","sEgWFYHqNIyjfUYlMH9byQAXs1",5627375,1293,FALSE,143095,"5 cents","5 minutes","47 days","4 days","29 students","20 dollars","has lost money.",1,1,1,1,1,1,1,1
"9TcMPkAgL5TZaatBcWxnjvzObX","up6eAnMnrE7EysL0tpYTHsIkUy",6404730,1069,FALSE,138404,"10 cents","100 minutes","12 days","9 days","15 students","20 dollars","has lost money.",0,0,0,0,0,1,1,0.285714285714286
"9u48cHtubdYURpNTkL5EAZvTzv","54GHtvOLK04NbqJam0hfmqCp2G",10027216,783,FALSE,279997,"5 cents","5 minutes","12 days","9 days","29 students","20 dollars","has lost money.",1,1,0,0,1,1,1,0.714285714285714
"9xDC5WK1SiT4qXtDagC2KfLcUk","BWmgM9tB0gZEJ7frTHWqYIXQBl",1447066,517,FALSE,233885,"10 cents","100 minutes","47 days","4 days","30 students","20 dollars","is ahead of where he began.",0,0,1,1,0,1,0,0.428571428571429
"a40wS2eskQad3oZLA0MOZSBCQP","nDHKD6Jj9jiJ1FSN65rFaO5kID",3321530,1197,TRUE,281002,"5 cents","5 minutes","47 days","4 days","29 students","20 dollars",NA,1,1,1,1,1,1,NA,0.857142857142857
"a4EmN4OGTpyrPwO1HyEgsp7YEU","laCbHFEpxt5PWxe0BP5K0rm5Eo",2485058,650,FALSE,96672,"10 cents","100 minutes","24 days","12 days","30 students","20 dollars","has lost money.",0,0,0,0,0,1,1,0.285714285714286
"A4lTLeZzknrbSwDyUExp3hDrh1","cf5qpwncXRoBzOmVd0yDIhEj0R",1864151,469,FALSE,89435,"10 cents","100 minutes","12 days","9 days","15 students","0 dollars","is ahead of where he began.",0,0,0,0,0,0,0,0
"A6LKiK83v3dUgYiC82pyhtk4hS","bmGQkIFLUo2q9Yd2kJjAZnCWxS",1440771,11,FALSE,244872,"10 cents","500 minutes","24 days","4 days","30 students","20 dollars","is ahead of where he began.",0,0,0,1,0,1,0,0.285714285714286
"A6SWWzpNo2nCUHB6nvCNMXQpa0","q7JLVSVQAMwxoN7c7qxXCArKpt",3091685,1311,FALSE,95631,"10 cents","20 minutes","24 days","3 days","30 students","10 dollars","has broken even in the stock market.",0,0,0,0,0,0,0,0
"AALopilgGbXBpeco7ngRNNMvw9","e0bFxEd0ktl6XarIS1RgyEgGj2",386553,55,FALSE,95397,"5 cents","5 minutes","47 days","4 days","29 students","10 dollars","has lost money.",1,1,1,1,1,0,1,0.857142857142857
"ab3bAjbnBe0a6JXL8XHWYTGDaC","UqRkYav0vmKTTGejsqGE5yC5o9",1344457,690,FALSE,168115,"5 cents","100 minutes","47 days","4 days","30 students","10 dollars","has lost money.",1,0,1,1,0,0,1,0.571428571428571
"abEHHm5P0YpC6cyKPIGzShU8be","zFOvLOwtDafFztg3uNENYrK5VK",2704158,600,FALSE,174272,"5 cents","5 minutes","47 days","3 days","29 students","0 dollars","has lost money.",1,1,1,0,1,0,1,0.714285714285714
"ACeKMB5vIaZowN1W5W9MnX6ODn","FSshxeSbWOExWiVgcGtRCDPVVX",997924,378,FALSE,186795,"5 cents","5 minutes","47 days","4 days","29 students","0 dollars","has lost money.",1,1,1,1,1,0,1,0.857142857142857
"aCh1h9szJlZZIqDiAevfZn7BGw","QjxW2PB0T7rdupQbGsK60GKrTU",276550013,1014,FALSE,98238,"5 cents","5 minutes","47 days","4 days","29 students","0 dollars","has lost money.",1,1,1,1,1,0,1,0.857142857142857
"aCtyM4LTYnVSvI8bcBeOhgYyud","dzKY3l7WUUoYau5TlEIYOwHoOJ",3637539,1296,FALSE,128669,"5 cents","5 minutes","47 days","3 days","30 students","30 dollars","is ahead of where he began.",1,1,1,0,0,0,0,0.428571428571429
"aFtoXhoqdgueT0xEEGjWyNF4T9","ESbzpUDylpxGiKrTxEfyClUFpR",336449,11,FALSE,198079,"10 cents","100 minutes","47 days","9 days","29 students","10 dollars","has lost money.",0,0,1,0,1,0,1,0.428571428571429
"aGbd7TcuNYjdfuHHjCuSDVLtyT","s2No756zZexymAsSpYgQw5ZCqP",4081806,1246,FALSE,184392,"10 cents","5 minutes","47 days","4 days","29 students","10 dollars","has broken even in the stock market.",0,1,1,1,1,0,0,0.571428571428571
"aH1N7Xo7hFTkSBnxdTAT7NBVq1","E5xIO6cRbENduolDtlFGO8Mvkq",194890,11,FALSE,163178,"10 cents","100 minutes","24 days","3 days","1 student","10 dollars","is ahead of where he began.",0,0,0,0,0,0,0,0
"ahmrhsc4dzTYJK5GbAgO568mxg","8PqOCNpDsFjBdnDd2mdfjKfdpn",75148968,1282,FALSE,241618,"10 cents","100 minutes","24 days","4 days","29 students","20 dollars","has lost money.",0,0,0,1,1,1,1,0.571428571428571
"ahtn7AvldeeBVRdq8obk4fQ9Lf","1MSlKDAoDBTIgpi2pFznfAbSHC",1781065,386,TRUE,283687,"9 cents","5 minutes","47 days","4 days","15 students","20 dollars","has lost money.",0,1,1,1,0,1,1,0.714285714285714
"ai2OCLJGciiVqIhZFpqsws8A7K","hNvtOCrsKYBlGwcjZNVM2tfQgs",1877439,170,FALSE,260318,"10 cents","100 minutes","12 days","9 days","15 students","20 dollars","has lost money.",0,0,0,0,0,1,1,0.285714285714286
"AIL5BoCkOQrb1KT51DYJIO39f4","K1Y69kXfqpfonkCWmA9O4s6oPQ",1609435,263,FALSE,107446,"5 cents","5 minutes","47 days","4 days","30 students","30 dollars","has lost money.",1,1,1,1,0,0,1,0.714285714285714
"akbnRlfHB1BReuFioKgS6fUocR","DS0YBQ0vkKt5TpgOkC10DwvmLf",15947716,730,FALSE,162968,"10 cents","5 minutes","47 days","4 days","30 students","20 dollars","it cannot be determined.",0,1,1,1,0,1,0,0.571428571428571
"AkiRgULwrpt6YKIrDtlPobnGIf","9zrBy0leVZgqs2ylBX6Sp3himO",1229623,163,FALSE,266385,"10 cents","100 minutes","24 days","9 days","29 students","10 dollars","has lost money.",0,0,0,0,1,0,1,0.285714285714286
"ALdployyEvdXrXgHa0zxSbWj0o","cqEwU6aDVmXYCK9d8L8sccqlFj",405011,26,FALSE,154648,"10 cents","5 minutes","24 days","3 days","15 students","30 dollars","is ahead of where he began.",0,1,0,0,0,0,0,0.142857142857143
"AM4CLqtWuW3x7iYVd3UqZX0Cea","xogdmzceakP1GLbbwO5crGZ3G0",3120478,1197,FALSE,23276,"10 cents","20 minutes","24 days","12 days","15 students","20 dollars","is ahead of where he began.",0,0,0,0,0,1,0,0.142857142857143
"AmEaJm39M71gTsBso1WDuvS9HI","FMYPqA9ycf8F6mNm7Br9DSXGRj",561711,28,FALSE,250331,"5 cents","5 minutes","47 days","4 days","29 students","20 dollars","has lost money.",1,1,1,1,1,1,1,1
"amLzR9raf5Wm6c7zFxjtCsbz4C","5vjIWdMYBVYddPCpFMfBVvYM8q",170096396,607,FALSE,195489,"5 cents","100 minutes","12 days","4 days","1 student","30 dollars","it cannot be determined.",1,0,0,1,0,0,0,0.285714285714286
"aNIWAwbP4IrGPZTCs1CllTUmjx","GtFrnshoj6uZBfFlsXfCK1BtRm",70179232,275,FALSE,277808,"5 cents","5 minutes","47 days","9 days","1 student","0 dollars","has lost money.",1,1,1,0,0,0,1,0.571428571428571
"AO3FNm806LZIncIRc1ubgSuDOF","WXW53RteZWI4uygmaQNmZQR7fR",1596495,320,FALSE,75279,"10 cents","100 minutes","24 days","9 days","30 students","10 dollars","is ahead of where he began.",0,0,0,0,0,0,0,0
"aPPEQZGOy5CPLB7Ahaf0c2i9MF","50o9Bd4UYBDJLuMYMGcdOPKsZJ",11826183,1246,FALSE,196342,"10 cents","5 minutes","24 days","4 days","1 student","0 dollars","has lost money.",0,1,0,1,0,0,1,0.428571428571429
"aqjS6f82UvPKeKJVDRo58yQadT","koid1f6AJLa2PhHIw61NfaqKg2",412461,27,FALSE,129547,"10 cents","5 minutes","24 days","4 days","1 student","20 dollars","is ahead of where he began.",0,1,0,1,0,1,0,0.428571428571429
"aqtO3XS5iSgp7ZTfVXHu3vjGrc","oc6CSQpSJGLoKhGOP7IIsHH05c",4469713,1289,FALSE,121337,"10 cents","100 minutes","24 days","4 days","30 students","0 dollars","is ahead of where he began.",0,0,0,1,0,0,0,0.142857142857143
"ar8q2VgjwEcF63jatjsjXbq5GD","fI7I7ehHA5fB5hYmNxodUVttrb",3046088,829,FALSE,138815,"5 cents","5 minutes","47 days","4 days","29 students","20 dollars","has lost money.",1,1,1,1,1,1,1,1
"atdnkM91bv86yIanFsWPAAJFZE","h2IQkiejkheCEgsDcXjHFHUZwC",895577,393,FALSE,134313,"5 cents","5 minutes","47 days","4 days","29 students","10 dollars","is ahead of where he began.",1,1,1,1,1,0,0,0.714285714285714
"aTf1C0gGRr8y4QtibfM53KLcLB","3cTMYTxEz268eESjpJnCBHM4H3",2589360,100,FALSE,276279,"5 cents","100 minutes","47 days","9 days","29 students","0 dollars","has lost money.",1,0,1,0,1,0,1,0.571428571428571
"aTQP8PBLhTjNlKD8zlYDRbuKt1","KlWygPGhjeALw83a7xpyJialQq",2161841,227,FALSE,157895,"10 cents","500 minutes","24 days","4 days","1 student","10 dollars","is ahead of where he began.",0,0,0,1,0,0,0,0.142857142857143
"auEzppLce316fMuLQefeLQaDxp","Es3h8K7z8EmH8nNTraIFMnN3OB",857109,591,TRUE,281002,"10 cents","500 minutes","47 days","4 days","30 students","0 dollars",NA,0,0,1,1,0,0,NA,0.285714285714286
"AUUvlDXr3twdw0eCkym8l9GkXt","MlCnrW580fgqS6G0ugz1uUVPnZ",2765862,1301,FALSE,61932,"10 cents","100 minutes","47 days","4 days","30 students","10 dollars","is ahead of where he began.",0,0,1,1,0,0,0,0.285714285714286
"aWeKWV81f9ZnZpL568AgDNa0Tr","UhJNiO0I82JReL0tTlKN4Nuw5E",3193524,460,FALSE,238945,"5 cents","5 minutes","47 days","4 days","29 students","20 dollars","has lost money.",1,1,1,1,1,1,1,1
"AXKxWxO60B6UdfmKHxV0jum7la","KhA0tt4jaOb5sM2xHNVEKItkmM",4379894,1289,FALSE,164568,"10 cents","5 minutes","24 days","4 days","29 students","20 dollars","has lost money.",0,1,0,1,1,1,1,0.714285714285714
"B1m7QZ3Qdcs4fTLEMUhq0cQsAg","IlIUWMv066jBHZPlDB0ByOqXCm",57967,11,FALSE,43254,"10 cents","100 minutes","24 days","9 days","15 students","10 dollars","is ahead of where he began.",0,0,0,0,0,0,0,0
"B4K0XwNDwCvgFhG48FayIzrudO","lWTQye0TQ2OTCglqdrlWZeBssb",2235089,294,FALSE,231732,"5 cents","5 minutes","47 days","4 days","29 students","20 dollars","has lost money.",1,1,1,1,1,1,1,1
"b9UVnZ3FVz9fse6I1CyhzKKdER","rnXaauKqPoZWQ62z2BqG3bNV0E",4611643,1292,FALSE,134763,"10 cents","5 minutes","47 days","9 days","30 students","10 dollars","has lost money.",0,1,1,0,0,0,1,0.428571428571429
"bA5RqalUzPEgAdeFZ13Anqzrhz","zp85YjwoUzgxx0aHcxPlihFyAX",3862378,740,FALSE,186146,"10 cents","500 minutes","47 days","4 days","30 students","20 dollars","has lost money.",0,0,1,1,0,1,1,0.571428571428571
"BAgMyl4iiAbzpUnlwvh5ncLvwo","JerTIZIm3xSMFhykM4qaIy6PGf",953521,615,FALSE,154953,"5 cents","5 minutes","47 days","3 days","30 students","20 dollars","has lost money.",1,1,1,0,0,1,1,0.714285714285714
"bAtsxXiQWI1g8ZlsxnHA9J92iS","TID77aJOaArZqAlAge3wTihZft",1114940,365,FALSE,224026,"5 cents","100 minutes","47 days","4 days","29 students","0 dollars","has lost money.",1,0,1,1,1,0,1,0.714285714285714
"bB5wiJwoloHVZZcvGRltpYTYPp","TU3HrEvgZ03Jq3wjIVoPQCU1FG",2952477,440,FALSE,274027,"10 cents","100 minutes","47 days","3 days","29 students","0 dollars","has broken even in the stock market.",0,0,1,0,1,0,0,0.285714285714286
"BBMuFm85kf3m5ygVSjeSBXkF32","fNVksiqjioUaxpvHjDlope92ld",2458632,808,FALSE,155677,"10 cents","5 minutes","24 days","4 days","30 students","30 dollars","is ahead of where he began.",0,1,0,1,0,0,0,0.285714285714286
"bcq3q8QaDjtHciVAv5aUHr4kUQ","mDk9AF1RAYvaZv3xo59cBXvZKY",2592082,1116,FALSE,104810,"10 cents","500 minutes","24 days","4 days","30 students","0 dollars","has lost money.",0,0,0,1,0,0,1,0.285714285714286
"Bd5QrwNGRMWAnTWof0GPG3fn43","cDm63zQ8D13sxYDHiW4g7hzE1r",3335070,1304,FALSE,137033,"10 cents","5 minutes","12 days","4 days","29 students","10 dollars","has lost money.",0,1,0,1,1,0,1,0.571428571428571
"BEhFXXnUe0DaZchoHGDXDLCWUY","20tGvKHMm0g6aYu2GuoIYJy61m",2907580,763,TRUE,281005,"5 cents","5 minutes","47 days","4 days","29 students","20 dollars","has lost money.",1,1,1,1,1,1,1,1
"bfK66fgIu0AW5EyjGmZeFHHAn4","0GYa09fXXVnIGYonpKJ3RV7Kib",89061508,1170,FALSE,236120,"5 cents","5 minutes","47 days","4 days","29 students","20 dollars","has lost money.",1,1,1,1,1,1,1,1
"bFOhRTVlfUR0K0xk5eu714qKYC","ddxIMghnOxbz55CqtKGeT6mBVl",263907,11,FALSE,254062,"10 cents","500 minutes","47 days","3 days","29 students","10 dollars","is ahead of where he began.",0,0,1,0,1,0,0,0.285714285714286
"BFstcWByXG4zaLlDUZwZyjXeTu","7TQcbH9vXe2yrhMkzlDbZ2FClM",304338,11,TRUE,281001,"5 cents","500 minutes","47 days","9 days","30 students","20 dollars",NA,1,0,1,0,0,1,NA,0.428571428571429
"bgMlk4i4DnwDK6YySONJuMeZwi","QMBocQMS4xDIC1gvykCSu0kKUH",1851151,495,TRUE,281000,"10 cents","100 minutes","24 days","3 days","15 students","10 dollars","has lost money.",0,0,0,0,0,0,1,0.142857142857143
"BHvhfTlKRfh8reBj30OfYwMshr","1sno1gQaYu24UAsv7yUXEjwTWr",140553,11,FALSE,128653,"10 cents","100 minutes","47 days","9 days","30 students","10 dollars","has lost money.",0,0,1,0,0,0,1,0.285714285714286
"bI2scrwJDtVPCEMQ48WCvjgMoj","ibHgzxzfbSDT1a3ltW0ngcb1SU",31674204,1267,FALSE,177772,"10 cents","5 minutes","47 days","4 days","30 students","20 dollars","has lost money.",0,1,1,1,0,1,1,0.714285714285714
"bjiW7bl9krLBA15JjYZN2e4jVd","IFtHBUucS0l6DqMq6Ty5ZePth4",2511844,796,FALSE,103153,"5 cents","5 minutes","47 days","4 days","29 students","20 dollars","has lost money.",1,1,1,1,1,1,1,1
"bjrgtMfaw4RjX5O2Zfy8gWKRFk","FO6kN8YO82AD56gUzxfYsRmE0r",3484134,1204,FALSE,193127,"5 cents","100 minutes","47 days","4 days","29 students","20 dollars","is ahead of where he began.",1,0,1,1,1,1,0,0.714285714285714
"BkfyVVf84juyJpGwU5HeNSeTiP","jndQI14xc3KDvsrmW0OPuUyGiG",58271478,979,FALSE,164408,"10 cents","100 minutes","36 days","4 days","30 students","10 dollars","has lost money.",0,0,0,1,0,0,1,0.285714285714286
"BkKJJMbujlq4FUityjh6AFSCzV","bowBUVO1U38G8173bwahdl5rhV",2631086,1096,FALSE,164403,"10 cents","5 minutes","24 days","9 days","15 students","10 dollars","it cannot be determined.",0,1,0,0,0,0,0,0.142857142857143
"BMYWb7wq4628VWaiFfTRUNQ0vY","0GevTIoiFsqj0FlRUW8iVD5pLI",3971479,1158,FALSE,224914,"10 cents","5 minutes","12 days","9 days","29 students","20 dollars","has lost money.",0,1,0,0,1,1,1,0.571428571428571
"bNVyfh6caZ0tTjsCBGJTPeZrur","dV41bRhMDsAGKq1ThLxo99s94B",219877,11,FALSE,208558,"5 cents","20 minutes","47 days","4 days","30 students","20 dollars","has lost money.",1,0,1,1,0,1,1,0.714285714285714
"bnXiRvldHvo2P8nw1KQXJRI0Kh","5q1M2tfTol9O8tkrNblEjShHWP",2004057,775,FALSE,124683,"5 cents","5 minutes","24 days","4 days","30 students","20 dollars","has lost money.",1,1,0,1,0,1,1,0.714285714285714
"bOmOYrSpOW2ySJY5YoJpuhs8rd","duqlPfd2flfXTPKBR0EuZI2OUp",4338332,1291,FALSE,112942,"5 cents","5 minutes","47 days","4 days","30 students","10 dollars","has lost money.",1,1,1,1,0,0,1,0.714285714285714
"BooPvGqPRakiyQOUsN3w03035Z","HEEjtnQtN7q1FSg9rLDL3lzgzR",231446,11,FALSE,191466,"10 cents","100 minutes","47 days","9 days","15 students","30 dollars","has lost money.",0,0,1,0,0,0,1,0.285714285714286
"BR4LWCjY8PGmKmpeht0FviyHWC","nOwYLQ1GIqD5CAS68DK7Zb06tA",36333435,1223,FALSE,215213,"5 cents","5 minutes","24 days","3 days","30 students","20 dollars","has broken even in the stock market.",1,1,0,0,0,1,0,0.428571428571429
"BSgOBsiHTUSqnlfawiatnmpACc","k9V1lZdYs3wNGKArVaf1seMqjC",1777348,131,FALSE,172768,"5 cents","5 minutes","47 days","4 days","29 students","20 dollars","has lost money.",1,1,1,1,1,1,1,1
"BsVzOUCQuFpwDOXeMRFjRazXu3","jshO4uR8L2QkhBqRlOS0xQV46N",2789019,641,FALSE,124812,"10 cents","20 minutes","24 days","3 days","29 students","10 dollars","is ahead of where he began.",0,0,0,0,1,0,0,0.142857142857143
"bVgvtBPGdupVzsXUlZ2wckd3Fx","HZ345XE9qEsAT7Khm7uEHt83m6",1128121,11,FALSE,122387,"10 cents","100 minutes","47 days","4 days","30 students","10 dollars","is ahead of where he began.",0,0,1,1,0,0,0,0.285714285714286
"bvxx1wswx89FKu8vnQWLVDxiwX","c9cxojawIadZAwuqGm9pLTMb7L",4576306,887,FALSE,131780,"10 cents","100 minutes","24 days","9 days","29 students","20 dollars","is ahead of where he began.",0,0,0,0,1,1,0,0.285714285714286
"bwIZEQ5P0RqBKchg5PrgN31jop","nbcLQj89yYyiE4f1izVKGvLeiA",1347417,471,FALSE,136028,"10 cents","20 minutes","24 days","9 days","30 students","20 dollars","is ahead of where he began.",0,0,0,0,0,1,0,0.142857142857143
"bzk3qUbZ7nO8yvCcqtzmD2vEyZ","rbfOPHNwgnSSKlsc5JtbGfZbA6",244039542,1305,FALSE,155116,"10 cents","100 minutes","47 days","3 days","15 students","10 dollars","has lost money.",0,0,1,0,0,0,1,0.285714285714286
"c0kc5R8Wlm5O8Dufl2z2zPR6mt","GYZRnjxISyfcZRiOLWQGaoxAjD",4523526,1287,FALSE,254628,"10 cents","100 minutes","24 days","9 days","1 student","10 dollars","is ahead of where he began.",0,0,0,0,0,0,0,0
"c0pyWbg7Bf8KWUat46N1TmfwOz","AZPBhUgMWgjD4vwSdW8Ijz3OXv",3049432,825,FALSE,148580,"10 cents","5 minutes","12 days","3 days","29 students","10 dollars","has lost money.",0,1,0,0,1,0,1,0.428571428571429
"c1ecQuyHp6M2v7NnvyZjZxLJfE","iqdfVNgJTax29fTdvdDskh7TlF",7648873,1038,FALSE,173415,"10 cents","5 minutes","47 days","3 days","30 students","10 dollars","is ahead of where he began.",0,1,1,0,0,0,0,0.285714285714286
"c3DEar9WYqsboJQcAUstkRQ1qH","vQStKMuJnvMonF77DuMiMGYFdC",315260,11,TRUE,281020,"5 cents","5 minutes","12 days","4 days","29 students",NA,NA,1,1,0,1,1,NA,NA,0.571428571428571
"C3skz9INA7I4aRsLj8yDNlyeBj","787bEBfqgUrCgoarwavAnHXquZ",1748560,457,FALSE,106859,"10 cents","20 minutes","47 days","4 days","15 students","0 dollars","has lost money.",0,0,1,1,0,0,1,0.428571428571429
"c5oQOOBQBM6KJlfKpKr1wwCtyj","BQ37gQmfZV7t2ShoMsU7qyxCny",1016513,367,TRUE,281011,"5 cents","5 minutes",NA,"4 days","30 students","20 dollars",NA,1,1,NA,1,0,1,NA,0.571428571428571
"C79lTQGvdlnbIRak8RNGPnNKEZ","vU9RInW0tmDYMtxanw2i0Iqryv",2243970,99,FALSE,175295,"5 cents","5 minutes","47 days","4 days","29 students","20 dollars","has lost money.",1,1,1,1,1,1,1,1
"c7OMTJi5IbV0Uw8OOl85pLRb9o","oXnC2NvAo6HSOxHVwZmM6t9rkS",3371076,793,FALSE,165919,"10 cents","5 minutes","24 days","9 days","1 student","10 dollars","is ahead of where he began.",0,1,0,0,0,0,0,0.142857142857143
"C9E47TnYIfeFDdLOoBZc7yLoOY","wr2eJpuGSX1G7cXuXfivj7LN27",2791673,1009,FALSE,168075,"10 cents","100 minutes","24 days","3 days","30 students","30 dollars","is ahead of where he began.",0,0,0,0,0,0,0,0
"CA7o1Jh8cekAs4WdK8b9QZRDu5","nlQcnb1CXcs9ys6xLcibnkLCsv",10969823,1292,FALSE,248018,"5 cents","5 minutes","47 days","4 days","29 students","20 dollars","has lost money.",1,1,1,1,1,1,1,1
"ca995GfPg5Gq94AyJvXobKC1Lm","FbZQjooyunCK4Vy3aC0KkkL4gI",861603,618,FALSE,100530,"10 cents","100 minutes","24 days","4 days","30 students","20 dollars","is ahead of where he began.",0,0,0,1,0,1,0,0.285714285714286
"CAg4pCDQh43pJ1Ru2uvtUpPaRw","GT18S8fWG1Rbbsk0NWhAMGhLKe",199595679,696,FALSE,190466,"10 cents","5 minutes","47 days","9 days","15 students","0 dollars","has lost money.",0,1,1,0,0,0,1,0.428571428571429
"cbt6xReTE3pM8TxtxTSeNLuDRK","nwKsEWI4Dk0SW3CMMcia3cfwOJ",3720093,1162,TRUE,281013,NA,NA,"24 days",NA,NA,NA,NA,NA,NA,0,NA,NA,NA,NA,0
"CC7qqP4MVsJ7eVhNtGDbrXkUUQ","nYswOPk6Wac2w8tmIdTA88RRVW",18120727,269,FALSE,68001,"5 cents","5 minutes","47 days","9 days","29 students","30 dollars","has lost money.",1,1,1,0,1,0,1,0.714285714285714
"CFC63KqB4ToOCMjt2EMTTlVxr4","TsZXt2XEhKIlQeCrgq4zK0IWGJ",11296663,703,FALSE,266382,"5 cents","5 minutes","47 days","4 days","29 students","20 dollars","has lost money.",1,1,1,1,1,1,1,1
"CfCPrhxSYQWPWIHPW0i4hloS1K","4tuRLTK7KOqnF9rFov74PqXJvd",287767,24,FALSE,113839,"10 cents","100 minutes","24 days","12 days","15 students","20 dollars","is ahead of where he began.",0,0,0,0,0,1,0,0.142857142857143
"cFCRgBk2Di7dSLZkYzfZSjtdTM","gaSXhM92SwP7y2hxHp1mQ9wS41",268456,11,FALSE,255566,"5 cents","5 minutes","47 days","4 days","29 students","20 dollars","has lost money.",1,1,1,1,1,1,1,1
"CgcTKWJ3UfmcQkJbIUUo5vwU9E","7bRChHswzpILQT66jHh1G6DNnV",3839718,709,FALSE,113169,"5 cents","5 minutes","47 days","4 days","29 students","20 dollars","has lost money.",1,1,1,1,1,1,1,1
"CghDqWDLJExfUgYbTAq8PRPbpI","lgkU9zTwZgcEh1JVX7aCFMFYQ5",4396777,1248,FALSE,189186,"10 cents","100 minutes","24 days","9 days","1 student","0 dollars","is ahead of where he began.",0,0,0,0,0,0,0,0
"cHoT6PDZDGYOmr0XKy7s7siv4S","DhN6QkGUfrTrsI0gKxqthhbKyv",236804,11,FALSE,154296,"10 cents","5 minutes","24 days","3 days","1 student","10 dollars","is ahead of where he began.",0,1,0,0,0,0,0,0.142857142857143
"CIAmHoErAwydoSUxNxtpmZzlOu","9FnYFJoqp8JIyzbqsPAXVPFmok",3893954,1287,FALSE,128088,"5 cents","100 minutes","12 days","9 days","29 students","20 dollars","has lost money.",1,0,0,0,1,1,1,0.571428571428571
"CM39SvYboge1hQ62tOmhhYhc8s","Anche3k9ZRTNzscsztmUAtQzk3",4563353,1272,FALSE,198456,"10 cents","5 minutes","47 days","4 days","29 students","10 dollars","has lost money.",0,1,1,1,1,0,1,0.714285714285714
"cNgucJALAMurbNK3xRSY1udogF","tww0jI2dew3zMWwlWNlJBkQpTF",7702342,938,FALSE,188045,"10 cents","100 minutes","24 days","9 days","30 students","30 dollars","is ahead of where he began.",0,0,0,0,0,0,0,0
"CPHo1Wz8A522IRd7vC4XyyqTFb","1hkLQ17eehQg5gV0Q8OBQSn5iQ",168686,11,FALSE,160115,"10 cents","100 minutes","24 days","9 days","30 students","10 dollars","is ahead of where he began.",0,0,0,0,0,0,0,0
"CQtqewpuPfQ5Sm5Bpe4cRtmXhR","0S6UiHJOjV4azSXzABiu7lNLTn",7347502,1262,FALSE,147144,"10 cents","100 minutes","24 days","3 days","1 student","0 dollars","has lost money.",0,0,0,0,0,0,1,0.142857142857143
"cR5cjowBd6gUAc9f7muwfh4R0y","kMuAsh5kuh4loylHFAsj0Ir2Ie",5438506,1208,FALSE,268362,"10 cents","100 minutes","12 days","3 days","1 student","10 dollars","is ahead of where he began.",0,0,0,0,0,0,0,0
"crk5qUO7TdgTT5iM0TFIyJLoC0","lWaV80gME8KD1TFETHlpPVNwmC",1939420,1133,FALSE,101005,"5 cents","5 minutes","47 days","4 days","29 students","20 dollars","has lost money.",1,1,1,1,1,1,1,1
"cRl4rtjUzCDAvHRu5RPyJKAaaR","Xu03z3J7tTVwqyXLKtzxPD7L8F",2096293,396,FALSE,219284,"10 cents","20 minutes","24 days","9 days","30 students","10 dollars","is ahead of where he began.",0,0,0,0,0,0,0,0
"crxUcc15Iq2d7tP7DZdRhe2gGO","GrMGwA8wzD74gD4IWxasM4s6Qj",952726,395,FALSE,68482,"5 cents","5 minutes","47 days","4 days","29 students","10 dollars","has lost money.",1,1,1,1,1,0,1,0.857142857142857
"ct9G7ZECL5vqq7ri1yFhf3z01o","0OKv9MRQn83I5mBfQeRNtYjfPT",857275,604,FALSE,180922,"5 cents","5 minutes","47 days","4 days","29 students","20 dollars","has lost money.",1,1,1,1,1,1,1,1
"CtT86BrdE2iTX5L8OVPm5JiVou","g9mM4tReMSXWqPpuejNUoqlcp5",726187,367,FALSE,170110,"5 cents","5 minutes","47 days","4 days","30 students","20 dollars","has lost money.",1,1,1,1,0,1,1,0.857142857142857
"Cux11sWK2t8Gv7GsGKSvotSYB8","R89VHdbbc6zoFuQbT7s4j4xKCr",2591603,788,FALSE,138750,"9 cents","100 minutes","12 days","3 days","30 students","20 dollars","has lost money.",0,0,0,0,0,1,1,0.285714285714286
"cv8wORpmSp2apztOf323yC1nHe","Jv3FxlE5J1et84g7AglpShfSzT",1331130,46,FALSE,207198,"10 cents","5 minutes","47 days","4 days","29 students","30 dollars","has lost money.",0,1,1,1,1,0,1,0.714285714285714
"cw8pk9JHEMEXtPgTeqlXm6nRsn","qnvkjB6yO3BT3Yt8YvvAAHqFIN",5675313,1304,FALSE,171028,"10 cents","100 minutes","12 days","3 days","30 students","30 dollars","is ahead of where he began.",0,0,0,0,0,0,0,0
"CxbvssSqzemL1OIzOeCHrC28QB","NFflkM43xYcFM11bxfSshBRjR7",24551355,1242,FALSE,100293,"10 cents","100 minutes","24 days","4 days","30 students","10 dollars","has broken even in the stock market.",0,0,0,1,0,0,0,0.142857142857143
"cXcTkmd1C7kTjN4xrhzSoTgQlX","msnHf7u5Sk7pfFXAE17DlG0GaC",2653672,1208,FALSE,108502,"5 cents","5 minutes","47 days","4 days","29 students","20 dollars","has lost money.",1,1,1,1,1,1,1,1
"cxFbLd6nm2DNaKNkRdYCcubNaa","MAel9RTI1BgNrC2VJG28soSPwL",8753776,1140,FALSE,193417,"9 cents","5 minutes","47 days","4 days","29 students","0 dollars","has lost money.",0,1,1,1,1,0,1,0.714285714285714
"CYQILq42nU6QM2n6SYsnj7bwZq","tEQRlIlcGYLcmfBniZCxn8eA4j",3922001,1202,FALSE,148002,"10 cents","500 minutes","24 days","3 days","30 students","30 dollars","has broken even in the stock market.",0,0,0,0,0,0,0,0
"czNukObe6gmQPXTXlHWGPUKOsm","HT80xm7etI3JZspQxPgbRlphip",4197166,1278,FALSE,199953,"10 cents","5 minutes","12 days","4 days","29 students","0 dollars","has lost money.",0,1,0,1,1,0,1,0.571428571428571
"cZqLCGHubDRFd6eRCqB7nGWT5f","zalNO5yQQEfBeYizKF8ZkyMdWS",230495,11,FALSE,207577,"5 cents","5 minutes","47 days","4 days","29 students","20 dollars","has lost money.",1,1,1,1,1,1,1,1
"D0c9FspmYzmFjsvj2bkZq1vp1Q","BaSO2ttsJlLjKqaCiEsSXTokEY",1884224,257,FALSE,148251,"10 cents","5 minutes","47 days","4 days","30 students","20 dollars","has lost money.",0,1,1,1,0,1,1,0.714285714285714
"D1Bxw97hXe3VI8minbCLL18Sj5","ob9rEgu0hrWlJjsHieZLxC7mgU",965878,111,FALSE,160673,"10 cents","5 minutes","47 days","4 days","30 students","20 dollars","has lost money.",0,1,1,1,0,1,1,0.714285714285714
"D1FDWuajNXwqJh23Jndtr7sxuU","D8coDsSphHvKrNoWZ7pQc1PKGM",278637,11,FALSE,264054,"10 cents","20 minutes","24 days","4 days","30 students","0 dollars","has lost money.",0,0,0,1,0,0,1,0.285714285714286
"d5SK82fgjIwMot2KcjW39s3dPt","Zs6qQuqkRUO4PlhPk6FiC5sgTW",168529281,908,FALSE,226221,"10 cents","5 minutes","47 days","4 days","29 students","20 dollars","has lost money.",0,1,1,1,1,1,1,0.857142857142857
"d7swq9H9vCRaZ8Xhq5HzweO55P","tRPKqKKyHxyBCs7sbHFQnoudFj",1737680,538,FALSE,187005,"5 cents","5 minutes","47 days","4 days","29 students","20 dollars","has lost money.",1,1,1,1,1,1,1,1
"dA234scgjv4FRmxnXbPfQs4Z35","zpn09ibehfH20W7qYu5NwAt4RH",4849441,943,FALSE,279975,"5 cents","5 minutes","24 days","9 days","29 students","10 dollars","it cannot be determined.",1,1,0,0,1,0,0,0.428571428571429
"dA4IOMU7IGC2UiGJmuisrBmL7N","oJzptuCGYgTDYIlx6dM9nD3udU",1503782,178,TRUE,281006,"10 cents","20 minutes","24 days","12 days","29 students","10 dollars","is ahead of where he began.",0,0,0,0,1,0,0,0.142857142857143
"DAIpvQVUUsxNoUTqGa11zWZE7d","6msQVcAsM6AlU529BT4lsnlx0N",3746639,725,FALSE,226758,"10 cents","5 minutes","12 days","4 days","30 students","0 dollars","has lost money.",0,1,0,1,0,0,1,0.428571428571429
"dAIS2xrEU9ckJLjqQFHM4Iqiyy","MDCLkrsluV4ByLdhuvAKEl9UQ7",7840372,1266,FALSE,266444,"10 cents","100 minutes","47 days","4 days","29 students","20 dollars","has lost money.",0,0,1,1,1,1,1,0.714285714285714
"dAwbxSmsYCEiO9clnYEWi8OSBH","OlDLLgQigOCIqXo2tJE3I2W8ol",1720969,791,FALSE,92293,"10 cents","100 minutes","24 days","9 days","30 students","30 dollars","is ahead of where he began.",0,0,0,0,0,0,0,0
"dB3GyPJAs5w1l9Jpe31S8frYX4","KhvVSpAbHMgtFBN1BzibbWx3Hy",3387761,1275,FALSE,75167,"5 cents","5 minutes","47 days","4 days","29 students","20 dollars","has lost money.",1,1,1,1,1,1,1,1
"DBRMO4WQj8yzeIlG1zZNgeHiOD","ovIRACMNAdstS1fk1e9hkZq2jD",4408001,1289,FALSE,107141,"5 cents","100 minutes","47 days","9 days","29 students","30 dollars","has lost money.",1,0,1,0,1,0,1,0.571428571428571
"DbZZNLVEYcMQvzw7JMSbkhBIrb","BVCe3hwX3bFf4aqd6H5Jynlgbf",1745125,112,TRUE,281000,"10 cents","100 minutes","47 days","4 days","1 student","20 dollars","has lost money.",0,0,1,1,0,1,1,0.571428571428571
"DCH4qkxWPOYlmclTZVKDQBBVaY","weoTpKI1PXDJ0qq48QneSDtAoL",3273193,1188,FALSE,108233,"5 cents","5 minutes","47 days","4 days","29 students","20 dollars","has lost money.",1,1,1,1,1,1,1,1
"dcvBhjhXuxZUDiKzCr3momM6L4","rOIL42JvcqFv2LpnMCgZ1DW6aS",6018804,1022,FALSE,239272,"5 cents","5 minutes","47 days","4 days","30 students","20 dollars","has lost money.",1,1,1,1,0,1,1,0.857142857142857
"Ddyn7qUtQTIXRh6JF0xUKpldCX","tFA9iEdab5aPnewRweAeChwrrO",2414128,474,TRUE,281010,"9 cents","5 minutes","47 days","4 days","15 students",NA,NA,0,1,1,1,0,NA,NA,0.428571428571429
"deE459uAH4S4mmVIgkO8v72DVC","4CrhcFTJMw7r9FGaYznZFzoiAq",1843097,379,FALSE,221009,"10 cents","100 minutes","47 days","4 days","30 students","10 dollars","has lost money.",0,0,1,1,0,0,1,0.428571428571429
"DF5t14reh0b53TrDICK5h3O5IB","MJJ9RuVLnUtUk8WnuYCICpel1d",1980086,600,FALSE,232241,"5 cents","5 minutes","47 days","4 days","29 students","20 dollars","has lost money.",1,1,1,1,1,1,1,1
"dHqlEJLOju0gnmuktJxlAoLvbt","DRVjDWJ4vZUGmkmiXC2g2W5ojB",387700,11,FALSE,258383,"10 cents","5 minutes","47 days","4 days","29 students","20 dollars","has lost money.",0,1,1,1,1,1,1,0.857142857142857
"DJD1KgXQt6IkcheUHBVr4hV0nU","6m7pWYEqwKHJYmINeBXaMmnAPd",4621162,1291,FALSE,131709,"10 cents","100 minutes","24 days","12 days","1 student","10 dollars","is ahead of where he began.",0,0,0,0,0,0,0,0
"DK0ZfcVP5Yl1aPM7IWG9zmcbaz","cC2MicNqymYFv9mkbakwlL9Eab",2950233,566,TRUE,281000,"10 cents","20 minutes","24 days","9 days","30 students","20 dollars","is ahead of where he began.",0,0,0,0,0,1,0,0.142857142857143
"dnIl5NdP8gBOyqenl4VIS9Tmh2","4146moGBDptylZZCZeVdGEqogI",3894414,1303,FALSE,139627,"10 cents","5 minutes","24 days","9 days","1 student","30 dollars","has lost money.",0,1,0,0,0,0,1,0.285714285714286
"dNvJQvHRiqT5J9CGUaT9Thy6tb","SCjzxnKH8UvB9990FkOW5EwdD3",4002570,669,FALSE,153998,"5 cents","20 minutes","47 days","4 days","15 students","0 dollars","has broken even in the stock market.",1,0,1,1,0,0,0,0.428571428571429
"Dps6BMAat1HPv4tnojIqm8kXDj","Mo6rRnfaNSv4dF84b1fT79rDEv",1572803,231,FALSE,181096,"10 cents","100 minutes","36 days","9 days","30 students","20 dollars","has broken even in the stock market.",0,0,0,0,0,1,0,0.142857142857143
"dqm3YHiM3qUPi6covg69HvCSPE","UdGaAkF0RpytPGcLks9N9Xjfb2",1687655,718,FALSE,266246,"5 cents","5 minutes","47 days","4 days","29 students","20 dollars","has lost money.",1,1,1,1,1,1,1,1
"DR15haz5pDHaKSHI8PaVezPO62","Z0EfCyJaRSJwcdoXKvo78bdfmK",620049,29,FALSE,268266,"10 cents","100 minutes","24 days","9 days","30 students","0 dollars","is ahead of where he began.",0,0,0,0,0,0,0,0
"Dr2fnSDDoK1Io05NStgRvfKWE7","Iv95wkQjR8KmjrQ5rCX37cYc6v",1010062,124,FALSE,189573,"10 cents","5 minutes","47 days","4 days","30 students","10 dollars","is ahead of where he began.",0,1,1,1,0,0,0,0.428571428571429
"DrObgZZ6uFgf90zL40iJhRx1xB","h4RJbvF0DZvYhT7X6N73g1BtPU",2830016,1135,FALSE,86928,"10 cents","100 minutes","47 days","4 days","30 students","10 dollars","is ahead of where he began.",0,0,1,1,0,0,0,0.285714285714286
"DuomowKMabY0tRNiBKoDfHq1cW","h64OtE4UI1szs0dZsFznjlIlBQ",91046,11,FALSE,67127,"10 cents","100 minutes","24 days","3 days","1 student","20 dollars","is ahead of where he began.",0,0,0,0,0,1,0,0.142857142857143
"dUV9k6SMUu2KWjwYm7yCUJzmTR","ip05cLPxMKnkisWgyTFoNp9DC6",330401,26,FALSE,102609,"10 cents","5 minutes","24 days","4 days","29 students","20 dollars","is ahead of where he began.",0,1,0,1,1,1,0,0.571428571428571
"dW0AyV9Dor9VsuYFdA0vaD0yp0","jd7D9UJ38gu5YDJsnOqd7AINyv",2132038,250,FALSE,230677,"5 cents","5 minutes","47 days","4 days","29 students","20 dollars","has lost money.",1,1,1,1,1,1,1,1
"dw3bOsFCS8oZSVpOJtnD1lCIgb","LW59NB5Ruzzq3UMMq5nsAy0U1f",16467478,664,FALSE,41036,"10 cents","5 minutes","24 days","9 days","30 students","10 dollars","it cannot be determined.",0,1,0,0,0,0,0,0.142857142857143
"dwhrwYSzZEpT1SGOeUYLn8YQEy","S0x8e1wgJbD3y2zDTwynq80yWg",3440795,712,FALSE,221391,"10 cents","5 minutes","47 days","4 days","29 students","20 dollars","has lost money.",0,1,1,1,1,1,1,0.857142857142857
"dwsHhU5dsnn5stKqRpOtTMyMJI","Sl82oGcSboRG3TGVNCM0QzqfT1",2123482,703,FALSE,111555,"10 cents","100 minutes","24 days","9 days","30 students","20 dollars","is ahead of where he began.",0,0,0,0,0,1,0,0.142857142857143
"DWZPYdkGgPLRzbNwwudvELAE3h","6PcFFuVaMmHmawNYfcrQa2keto",72714310,26,FALSE,227469,"5 cents","5 minutes","47 days","4 days","29 students","10 dollars","has lost money.",1,1,1,1,1,0,1,0.857142857142857
"Dx2ibwQKAJkAMYoHyp1Tvo4oKR","OybIg7tVpm4GnaGqtsgRmFlPYx",724575,383,FALSE,141764,"10 cents","100 minutes","12 days","3 days","30 students","30 dollars","is ahead of where he began.",0,0,0,0,0,0,0,0
"dYfhggRSlaY8dvEG5T1YoERzL2","yVobN9N9XxceLb4zJjYXr7uSjq",1254514,412,FALSE,109171,"10 cents","100 minutes","24 days","9 days","30 students","0 dollars","has broken even in the stock market.",0,0,0,0,0,0,0,0
"dynhsXvqBoKCoy3cYmws3THzLw","3bcONdC3xIxaTLNAnOFy9VunCk",532966,383,FALSE,101718,"9 cents","100 minutes","24 days","3 days","30 students","0 dollars","is ahead of where he began.",0,0,0,0,0,0,0,0
"dZiCmIMbASmBBTp83IcRUApiIM","109Vj3orFtKT09JGoIkKXPPWVV",3589748,1255,FALSE,153457,"5 cents","100 minutes","47 days","4 days","29 students","20 dollars","has lost money.",1,0,1,1,1,1,1,0.857142857142857
"e0lCDsVmrzjmrG3eGpuG1xWbq4","PX6SMUdGLARkbW2sqJmyJqShCj",3090738,180,FALSE,240000,"5 cents","5 minutes","47 days","4 days","29 students","20 dollars","has lost money.",1,1,1,1,1,1,1,1
"e310iTqwVfTQ2Vt9Y4urqWU8dL","BtPXy4fJdOxk10eaqOC9aMGhkw",37134880,1128,FALSE,227172,"10 cents","20 minutes","12 days","4 days","29 students","10 dollars","is ahead of where he began.",0,0,0,1,1,0,0,0.285714285714286
"e3F9QBFVMIZyOtRyyihSW662Bm","PzfqwQbPCbzpaoXtVJhPQxtR0v",3478286,1159,FALSE,101245,"5 cents","5 minutes","47 days","4 days","29 students","30 dollars","has lost money.",1,1,1,1,1,0,1,0.857142857142857
"E524zpWNqrUvfsUeFDTuyqcihY","bQT35NCafo57KFQcdoGx4FXMGJ",630114,367,FALSE,194506,"10 cents","5 minutes","47 days","4 days","29 students","20 dollars","has lost money.",0,1,1,1,1,1,1,0.857142857142857
"E6BU2Hw61jmwnB5GMvdwhuRiLR","RCWujEAkMhcs8qPGg2lVIljJ5g",44718307,1294,FALSE,270415,"10 cents","100 minutes","24 days","9 days","30 students","30 dollars","is ahead of where he began.",0,0,0,0,0,0,0,0
"E6Vx1GQZky6uXQ05fITP0lRg0R","8eUUpcYMU9Q1tK9lR8fVpe4cia",2674644,1157,FALSE,153137,"5 cents","5 minutes","47 days","4 days","30 students","20 dollars","has lost money.",1,1,1,1,0,1,1,0.857142857142857
"E7dLOQWWmqfFQhyUSmPm9wok9p","zlUC9DpKZ1iGWcOInWB8sOo2NA",1660391,285,FALSE,80861,"10 cents","100 minutes","24 days","9 days","15 students","10 dollars","has broken even in the stock market.",0,0,0,0,0,0,0,0
"e7IXdVoPrRB3mePiL7cQBE7I3q","W8aC8RzLRODILueeCBt1Mx5qWq",136405,11,FALSE,105455,"5 cents","100 minutes","47 days","9 days","29 students","30 dollars","is ahead of where he began.",1,0,1,0,1,0,0,0.428571428571429
"e7mv4XcvUYiIqbmt9n9tvN43jN","lopZplCt20VdTyP3QhbxrpBIgm",4381979,1220,FALSE,178236,"5 cents","5 minutes","24 days","4 days","30 students","10 dollars","has lost money.",1,1,0,1,0,0,1,0.571428571428571
"E7yQt8gYi7gNh7GLyhrMnN6QBv","dkzse5hNU7LEPYQa3xf26ixXYZ",277247,11,FALSE,190847,"10 cents","100 minutes","24 days","4 days","30 students","10 dollars","has lost money.",0,0,0,1,0,0,1,0.285714285714286
"e7ZynSSmbveu7OPIBMn8MwmcwQ","ZRzUTdUuZipV3ci3gp7T5Pwo89",3539089,61,FALSE,237979,"10 cents","100 minutes","24 days","3 days","15 students","20 dollars","is ahead of where he began.",0,0,0,0,0,1,0,0.142857142857143
"EAagvC1yypTZSCek02LoxQ5Awm","7JhqYZKDoA8pwL4ICWC6Jig0sx",3947232,1303,FALSE,131561,"5 cents","5 minutes","47 days","4 days","29 students","20 dollars","has lost money.",1,1,1,1,1,1,1,1
"EBvmPIwtT4TawOWYxWVmcwfT08","oldEusEVfcpJAVd7HXc9BvMprn",93935912,256,FALSE,162464,"10 cents","100 minutes","24 days","12 days","29 students","20 dollars","has lost money.",0,0,0,0,1,1,1,0.428571428571429
"Ee8sjUa7HnhEOXQ7SwflPAWwz3","qJNaz4m6NNyL2OpS4tRNnw1ahZ",3801621,1291,FALSE,149853,"1 cent","100 minutes","12 days","9 days","30 students","10 dollars","is ahead of where he began.",0,0,0,0,0,0,0,0
"eEvMugs7ImqhrM9gdOInjFy3CS","Hv8dP65KamxJMB0Fl3Usd0aAoK",4688411,933,FALSE,109260,"5 cents","5 minutes","47 days","4 days","29 students","20 dollars","has lost money.",1,1,1,1,1,1,1,1
"eewyuc0AB3gW4NKx5BDi1pGgrU","cvmMpGjxYT3Fhdb4kSeNKdLHuJ",1862272,529,FALSE,110952,"10 cents","100 minutes","12 days","3 days","30 students","20 dollars","has lost money.",0,0,0,0,0,1,1,0.285714285714286
"EeytJ2D9KHZyxE45H7L7uRMomL","5SJP0AMjfm7AFaJyfcoT0NYNyf",780354,73,FALSE,171155,"10 cents","100 minutes","24 days","3 days","30 students","0 dollars","is ahead of where he began.",0,0,0,0,0,0,0,0
"efgGWo6lxdDkfACGEKWLe0YRhU","SHk2FFmqD4XIDszrzlQ2aoyHDu",4315230,1286,FALSE,128161,"10 cents","100 minutes","12 days","4 days","29 students","20 dollars","has lost money.",0,0,0,1,1,1,1,0.571428571428571
"eGbg4dRqfHX7jOaPDCxuebkVJN","zKu9hiSHPz6WcJH3KC2xzvO6gf",746091,67,FALSE,119028,"10 cents","20 minutes","24 days","9 days","30 students","20 dollars","is ahead of where he began.",0,0,0,0,0,1,0,0.142857142857143
"EgDIzrM4PJVuBBBVuoaTaWSC8n","pqpH490VQZlXuJ3bjyiI5XeW6j",817138,70,FALSE,98089,"5 cents","5 minutes","47 days","4 days","29 students","20 dollars","has lost money.",1,1,1,1,1,1,1,1
"EgUaHEfMqQk5jDQ0xWaDUHcpXO","263GhbbGiVc9rMI6HYh5BfRrC3",6351129,652,FALSE,143249,"5 cents","5 minutes","47 days","4 days","29 students","20 dollars","has lost money.",1,1,1,1,1,1,1,1
"EGWieGhFP8u3l1C4aUCFisM9GS","8B18zkeAFjkscVITaKxkL2rZKH",3149025,1272,FALSE,210097,"5 cents","5 minutes","47 days","4 days","29 students","20 dollars","has lost money.",1,1,1,1,1,1,1,1
"EiBoRmKn3o6TkOwOhVEBOGavE1","F3tsQU6ofWC9PMVn27ye7NX9Tn",5224741,1235,FALSE,164942,"10 cents","100 minutes","47 days","4 days","30 students","10 dollars","is ahead of where he began.",0,0,1,1,0,0,0,0.285714285714286
"eiMyjwcyfgXZXcHzU15l15804M","S8BF0GBn6VpRE4SnA2LvAkx62h",928481,45,FALSE,195876,"10 cents","100 minutes","47 days","4 days","1 student","20 dollars","is ahead of where he began.",0,0,1,1,0,1,0,0.428571428571429
"EIT1DsUp9C8S32AZAoAl1ytwav","QOdSLiVQvr45CPMhUYOVJLGUC9",2352592,1051,FALSE,153130,"5 cents","5 minutes","47 days","4 days","29 students","10 dollars","has lost money.",1,1,1,1,1,0,1,0.857142857142857
"eiZ314nGk30G2jnyLVP96lPMK7","VLKjv2fZsY8iPZx3Jj740uvPyT",1519120,753,FALSE,111878,"10 cents","5 minutes","12 days","9 days","29 students","20 dollars","has lost money.",0,1,0,0,1,1,1,0.571428571428571
"ejuGpJUu2Vzur0vu0iHOiSMBAq","tCrsYRFu03GJPcTFgkjEj6DBec",2983890,1007,FALSE,132841,"10 cents","100 minutes","24 days","9 days","1 student","10 dollars","has lost money.",0,0,0,0,0,0,1,0.142857142857143
"Ek11hZ0FR7Ipg1wmJsA2BGohpZ","y5SYrdRtaomq9R12ApDMZqvF94",208026,11,FALSE,166284,"10 cents","100 minutes","24 days","4 days","29 students","20 dollars","has lost money.",0,0,0,1,1,1,1,0.571428571428571
"eLZtnmztGRYwaKxNlb9r9yZXmE","WHuknOZUM9IemleFYMNh9u0JKv",2919360,167,FALSE,257689,"10 cents","5 minutes","12 days","4 days","29 students","10 dollars","has lost money.",0,1,0,1,1,0,1,0.571428571428571
"EmdRD31woWbcOBw0L5ZIAjec8c","T9VqpAhQFltx2mi0NuStAMz1qp",3427883,539,FALSE,244873,"5 cents","5 minutes","47 days","4 days","29 students","20 dollars","has lost money.",1,1,1,1,1,1,1,1
"emfmchh1kRz9jGyoVRTxBmbT8o","9Mct8ZQljCixMHOoklLkUJjgh1",83129682,186,FALSE,169035,"10 cents","100 minutes","47 days","9 days","30 students","20 dollars","is ahead of where he began.",0,0,1,0,0,1,0,0.285714285714286
"eMIJAPPwVNFIjXUf3vFmsmXA1u","eyUyRt1VHvSE2LY5w7j5ecdrHH",3673208,1232,FALSE,197034,"10 cents","5 minutes","47 days","12 days","29 students","10 dollars","has lost money.",0,1,1,0,1,0,1,0.571428571428571
"eMsS3hTgmeLa53QtGTVzkoJjbr","KtBJdy84BPbTrQJ1yYUROOXV02",663583,25,FALSE,280267,"5 cents","5 minutes","24 days","4 days","29 students","20 dollars","has lost money.",1,1,0,1,1,1,1,0.857142857142857
"eoFKQfn3RBHDxT5iMSCm8AXn2D","UfkvrbHIqiDBsObUeE5xUZxup3",5189888,1273,FALSE,141005,"10 cents","5 minutes","47 days","9 days","29 students","30 dollars","it cannot be determined.",0,1,1,0,1,0,0,0.428571428571429
"eOko0W2Aa1UnrJRGqQECs3046N","eeuKPm0YeODpoThBO9BjBQ9A4s",3634009,1210,FALSE,177231,"5 cents","5 minutes","47 days","4 days","29 students","20 dollars","has lost money.",1,1,1,1,1,1,1,1
"eQhRJIIQuF7xMuklSnRAh2QIDg","ovqFzLC588NRB0SXVLmFPBPUW5",3534127,1081,FALSE,101606,"5 cents","5 minutes","47 days","4 days","29 students","10 dollars","has lost money.",1,1,1,1,1,0,1,0.857142857142857
"EQhwrYv1JoB0lwkjfqkrrfajI4","Jp8IPwVRPZmk5UUdbxUmUiTJ4j",595585,40,FALSE,230707,"5 cents","5 minutes","47 days","4 days","1 student","0 dollars","has lost money.",1,1,1,1,0,0,1,0.714285714285714
"eqSmHGKk9KyrbVePFmFNhgtppG","f06bzgy1boxnCYZIzmtqHO2Fqp",1456587,196,FALSE,137492,"10 cents","20 minutes","47 days","4 days","29 students","20 dollars","has lost money.",0,0,1,1,1,1,1,0.714285714285714
"esdxXWIsuvwb4vxPhfZ2iH530V","2TIo5rgD9TVyLf7XVuNCoNMKYI",174898199,97,FALSE,171488,"10 cents","100 minutes","24 days","9 days","30 students","0 dollars","has broken even in the stock market.",0,0,0,0,0,0,0,0
"euawiXdkBSmZWy3jMfzy6HX8DG","NCTSBrm3O2gmQuXeHpG5ZseGNh",1543804,151,FALSE,227634,"5 cents","5 minutes","47 days","4 days","29 students","20 dollars","has lost money.",1,1,1,1,1,1,1,1
"Euk56lxulaBDGounWTpL1cku3P","G5kVVPO7nYoAGyNlTgyRfCeq6q",323268,11,FALSE,279329,"10 cents","5 minutes","47 days","4 days","29 students","20 dollars","has lost money.",0,1,1,1,1,1,1,0.857142857142857
"EVD0wB0cq4QNnMYorpbaSHsau7","dwpb2RXRhlctszNNvG4Qgsqygh",2688368,946,FALSE,77347,"5 cents","20 minutes","24 days","9 days","30 students","10 dollars","has lost money.",1,0,0,0,0,0,1,0.285714285714286
"ewfuuCfIgFM20w3D4tFeFV4Ghi","dmi6F1zAM8npv5LptWpdlmoe2c",3250994,1185,FALSE,208808,"5 cents","5 minutes","47 days","4 days","29 students","20 dollars","has lost money.",1,1,1,1,1,1,1,1
"exA17f0FzOVTVtZwr3hdcIOgOP","UvyHVuXL8Kmrlygg3wvp381U0D",198601,11,FALSE,183488,"10 cents","5 minutes","47 days","4 days","29 students","10 dollars","has lost money.",0,1,1,1,1,0,1,0.714285714285714
"EYg4OHO8tP2y7rIvfETpmpjlGN","nRK6u2HqGMo8uAxxT71ZK3rKWH",4075117,696,FALSE,123550,"10 cents","5 minutes","24 days","4 days","30 students","0 dollars","is ahead of where he began.",0,1,0,1,0,0,0,0.285714285714286
"EYHSOy6C5mE1Szad3eJBDuGI1i","KXyh4z9kklXwfgNF0rjdMegZE8",5959354,684,FALSE,245281,"5 cents","5 minutes","47 days","4 days","29 students","20 dollars","has lost money.",1,1,1,1,1,1,1,1
"eZ2aNrdo5aeiJ3cyd7VAZp6Iog","LcHNenI1UTkYOzMRxEPiMjpfZT",386969,78,FALSE,80340,"10 cents","100 minutes","47 days","4 days","30 students","20 dollars","has lost money.",0,0,1,1,0,1,1,0.571428571428571
"eZ6adp0R65YrSX0h8rYG0nQ2b2","fxHoDHgF7psEidoyyrJBYsfq0O",4300220,1140,FALSE,178339,"10 cents","100 minutes","12 days","9 days","1 student","0 dollars","is ahead of where he began.",0,0,0,0,0,0,0,0
"f0OU1O9RCcBZjAka35yZW6vOUA","JRVXHBvyN0jOJLFsb1k6xTCnah",6207391,430,FALSE,247235,"5 cents","5 minutes","47 days","9 days","29 students","20 dollars","has lost money.",1,1,1,0,1,1,1,0.857142857142857
"F1AvlchQxbSukLLpeZfE6XowVW","E6HOyvpH5pIhbToevOpyayCGfF",1274533,170,FALSE,59184,"5 cents","5 minutes","47 days","4 days","29 students","20 dollars","has lost money.",1,1,1,1,1,1,1,1
"F2k42xxdQta8qW9kl6Jr0llal9","M8IEgKTpdGJv22h9wdSi76v2pg",1180434,76,FALSE,146407,"10 cents","100 minutes","24 days","3 days","1 student","10 dollars","it cannot be determined.",0,0,0,0,0,0,0,0
"f382WEwkg5YuJUoztEtm6jjaqx","WdhgJddW8mr04EtahiFsbDBWJ9",23598087,1303,FALSE,164084,"10 cents","100 minutes","24 days","12 days","30 students","30 dollars","has lost money.",0,0,0,0,0,0,1,0.142857142857143
"F4U77qXHWN45zPCTG2IRFnichB","mVBukYITnoTcUo8HRXGXviFZ8B",1055796,448,FALSE,202531,"5 cents","5 minutes","47 days","4 days","29 students","0 dollars","has lost money.",1,1,1,1,1,0,1,0.857142857142857
"F63TsauoX4zqrFZKH97NavDlbN","myBK8LPRGlZ6hGebcdjKCjRYKG",4066910,948,FALSE,193743,"10 cents","5 minutes","24 days","4 days","1 student","20 dollars","has lost money.",0,1,0,1,0,1,1,0.571428571428571
"F8ujB6JIpXsCpoTVrO0ZuhZxLa","JEe9zjyFAL3OicPKFE4DlZxFvF",268363,12,FALSE,244549,"5 cents","500 minutes","47 days","4 days","29 students","20 dollars","has lost money.",1,0,1,1,1,1,1,0.857142857142857
"f9BxpNm8qhf8MupObEbGsi2pjH","0qrYFbzR68YWaQTdAdIv83k2Og",725976,78,FALSE,237919,"10 cents","100 minutes","24 days","3 days","29 students","20 dollars","is ahead of where he began.",0,0,0,0,1,1,0,0.285714285714286
"fbCovr34ohE2FwzaXfeyvYMxTe","pzMbGw9gXjvsGz2hmTiKuXsMZS",1864275,136,FALSE,277417,"5 cents","5 minutes","47 days","4 days","29 students","20 dollars","has lost money.",1,1,1,1,1,1,1,1
"fcvn6SSoPPrl48Rrivo0hVKvO5","nHI4wxnXnEYj5EzGYIAmnHRihX",2664490,231,FALSE,174063,"5 cents","5 minutes","47 days","4 days","29 students","10 dollars","has lost money.",1,1,1,1,1,0,1,0.857142857142857
"fD40GKIu7qse00f05IUjNy3yER","ns2TK45AaT32QzK4buKCJLiCba",2546713,621,FALSE,229974,"10 cents","100 minutes","47 days","4 days","15 students","0 dollars","is ahead of where he began.",0,0,1,1,0,0,0,0.285714285714286
"FDlrlQmU0QmdkzmVwwMVPCSVCC","xZfaFY6z1C0bYEuupGq65NxlGk",2919245,694,FALSE,125340,"5 cents","5 minutes","47 days","9 days","29 students","20 dollars","has lost money.",1,1,1,0,1,1,1,0.857142857142857
"fEjsc1CXvBNnPDBQFMafhBJeyz","o80FkGgWBiiRVZnYLFcbsLQfg5",3564224,1203,FALSE,187318,"10 cents","5 minutes","24 days","4 days","29 students","20 dollars","has lost money.",0,1,0,1,1,1,1,0.714285714285714
"FfsgKN4OvYZMhJvBTYdfxRwWPi","a29iHqaeUnVVDnxlezEA1aXANc",2977096,557,FALSE,218474,"5 cents","5 minutes","47 days","4 days","29 students","0 dollars","has lost money.",1,1,1,1,1,0,1,0.857142857142857
"fFwyHhZq6p53jd373NpWFR4iJw","rxVO8SF6wq6GvarwKRiad9pcPO",3802823,1132,FALSE,125277,"10 cents","100 minutes","47 days","4 days","29 students","10 dollars","has lost money.",0,0,1,1,1,0,1,0.571428571428571
"fHEWw7FpzzVI6LStgbq86nnihm","xmhKHr3Ba9UkLp1b5HvC5JZ64L",2303120,1062,FALSE,100791,"10 cents","100 minutes","24 days","4 days","1 student","10 dollars","has broken even in the stock market.",0,0,0,1,0,0,0,0.142857142857143
"fj3QXTCTu2I5oRRrp0H1by7uDo","djzxXpKPmto2opOpFCmOJ5IpRi",8232207,1227,FALSE,231387,"10 cents","5 minutes","47 days","4 days","29 students","20 dollars","has lost money.",0,1,1,1,1,1,1,0.857142857142857
"fkKc8mWqiHNxAaOdDjUeh8RqQh","D6ITZFgpyuxIkicPTXmMnVH507",3169192,1177,FALSE,149701,"5 cents","5 minutes","47 days","4 days","29 students","20 dollars","has lost money.",1,1,1,1,1,1,1,1
"fLSQCqFi9Nhuv7OvvatBkOkh0v","d0lyELIL2kxLRk3KZcZxsX0Lrs",888025,588,FALSE,225596,"10 cents","5 minutes","47 days","9 days","30 students","0 dollars","has lost money.",0,1,1,0,0,0,1,0.428571428571429
"fmbfH0bmrbwUpyN606Bwi3w1Ob","TScpVHIVTfbPvCHKErkcT1Ion9",1512883,152,FALSE,278880,"10 cents","5 minutes","24 days","4 days","30 students","10 dollars","is ahead of where he began.",0,1,0,1,0,0,0,0.285714285714286
"FmmmcFFfpFHMiJyjodlMhLGYvq","OAtBnlPKb4tESYZd71vKF9UnVW",5674024,639,FALSE,264719,"5 cents","5 minutes","47 days","4 days","29 students","20 dollars","has lost money.",1,1,1,1,1,1,1,1
"foFflalZaq3KXLOMyLNjkR0evd","zBxA55zXZSBJ6G8cxL2owG0cpz",3151222,640,FALSE,204481,"10 cents","5 minutes","12 days","4 days","30 students","10 dollars","is ahead of where he began.",0,1,0,1,0,0,0,0.285714285714286
"Foyui6RapZ7Fp7FNL3NA4fpf56","FbCBN8P1k2MTa7a2XQgQ5yi2Ha",492618,24,FALSE,237769,"5 cents","5 minutes","47 days","4 days","30 students","20 dollars","has lost money.",1,1,1,1,0,1,1,0.857142857142857
"FpvPByvTtIhjmFO1IBP8kMUC5y","akTntbhvwjwVJu5DItppGja0LE",2515070,234,FALSE,159827,"5 cents","5 minutes","47 days","4 days","29 students","20 dollars","has lost money.",1,1,1,1,1,1,1,1
"fPWYk2TA2eyo5V49oMtNBTAyI4","GiTDMWJaYMiPZ5mxRTHspvNweN",1694171,101,FALSE,129296,"10 cents","100 minutes","47 days","9 days","29 students","20 dollars","has broken even in the stock market.",0,0,1,0,1,1,0,0.428571428571429
"FrTub4lOeUPpjaBbhnVQwFpi7n","fQMWgWHkH9BcFO3ovKvuGWWaSv",9017256,100,FALSE,124732,"10 cents","100 minutes","36 days","9 days","15 students","10 dollars","is ahead of where he began.",0,0,0,0,0,0,0,0
"FsC2lfdLaRSfwXEUVSlMp4aXkm","rBYr8WXvtrKbr423VCAwUOfnFn",5402689,1301,FALSE,272460,"5 cents","100 minutes","47 days","4 days","1 student","20 dollars","is ahead of where he began.",1,0,1,1,0,1,0,0.571428571428571
"fStr1S5qfEwa3J7NZEvYGc3YY4","DKwb8n8Itqze8XKcW8BF0Bkz6r",4337658,1303,FALSE,159859,"10 cents","100 minutes","47 days","9 days","30 students","20 dollars","is ahead of where he began.",0,0,1,0,0,1,0,0.285714285714286
"ft9cCJUzTZHqd0ABSDXfEqMRt3","s7YonZl2OCdbfOmnvSPF3ZA3fv",2527340,1039,TRUE,281002,"5 cents","100 minutes","47 days","4 days","30 students","20 dollars",NA,1,0,1,1,0,1,NA,0.571428571428571
"fu0iXqjrCWqivoYBa8MBqjFIcd","EPQbpl60dWjVKWdYg8YhFErRnM",3025371,1044,FALSE,151284,"10 cents","100 minutes","24 days","9 days","30 students","10 dollars","has lost money.",0,0,0,0,0,0,1,0.142857142857143
"Fuzlaq8AGMAhCJpjvusfFicJza","Biu2MvUvElHDjrUe8lG9ImLpiR",32109451,1322,FALSE,182666,"10 cents","100 minutes","24 days","9 days","30 students","10 dollars","has broken even in the stock market.",0,0,0,0,0,0,0,0
"FWhmJ3jagR0z1iUQLC0fFe86PU","U1P2UtAMqXRSRKuHLlO6qXCFFx",15158989,717,FALSE,174149,"5 cents","5 minutes","47 days","4 days","29 students","10 dollars","has lost money.",1,1,1,1,1,0,1,0.857142857142857
"FWKRk82828zUOmGtoKW7pPyE3H","LYimazCnqslczb3Qo5tMDj37cc",1880102,963,FALSE,195086,"10 cents","5 minutes","47 days","4 days","29 students","10 dollars","has lost money.",0,1,1,1,1,0,1,0.714285714285714
"FWL8w112ptJvLVPnfC1K4PfbcB","iAl8buzaJ6nYhYLVA62ZyuA9AU",311029,25,FALSE,175453,"10 cents","20 minutes","24 days","9 days","1 student","10 dollars","is ahead of where he began.",0,0,0,0,0,0,0,0
"fWzX7dgXH05iwHPcNnsJ60QI5E","SbJtblBJIgG9N2SqhsDd1RhfYf",2487026,821,FALSE,91469,"10 cents","500 minutes","24 days","9 days","30 students","0 dollars","is ahead of where he began.",0,0,0,0,0,0,0,0
"FY74xksuNB5YYzY7rFvwUUTsDJ","KTj02QfeP866ROD78vIJFp3DmS",4420342,507,FALSE,101029,"10 cents","100 minutes","24 days","12 days","15 students","10 dollars","has broken even in the stock market.",0,0,0,0,0,0,0,0
"fYJG2Fl6vUPjOpMrj5ZwldE9iW","N8VnwUu6lueDwlQtyazqsAxs4H",3776968,848,FALSE,234084,"10 cents","100 minutes","24 days","9 days","15 students","10 dollars","is ahead of where he began.",0,0,0,0,0,0,0,0
"fyPtedFm2mcnx0Yj9JgEFjjgCe","swGkE5grb0rjB7fzvCZroei3TV",384206,24,FALSE,157479,"10 cents","5 minutes","24 days","9 days","30 students","30 dollars","is ahead of where he began.",0,1,0,0,0,0,0,0.142857142857143
"fZeyKvybYW7T5D8qsWzn8jaVMI","p1mLebtEqtVpo8P2HP7L8P875A",639280,94,FALSE,118384,"10 cents","5 minutes","47 days","4 days","29 students","10 dollars","has lost money.",0,1,1,1,1,0,1,0.714285714285714
"G1LfMkd9Q9zhmrNqWZLCGsOjrA","kVQvXKjIcA8Q24Qw3aySCmVm7L",4909575,1292,FALSE,125460,"10 cents","100 minutes","47 days","9 days","30 students","20 dollars","has lost money.",0,0,1,0,0,1,1,0.428571428571429
"G31Kq2O656jS30TOWribsBhwdY","oLQOH9swPkSbMgZxaWvQflWbhk",4995942,1189,FALSE,140467,"10 cents","5 minutes","24 days","3 days","30 students","10 dollars","has lost money.",0,1,0,0,0,0,1,0.285714285714286
"G4qisKKp8RZEIYFuPeJGyFvzl0","yrrXWe5UaH8FXdwnncvrYcXpfX",3258299,117,FALSE,155264,"10 cents","100 minutes","24 days","9 days","29 students","20 dollars","is ahead of where he began.",0,0,0,0,1,1,0,0.285714285714286
"g53xAIio9cpdB6OncR0fPXTXGt","XIlrXh0FGqljUJXYGdLAPSbvVx",307261,11,TRUE,281005,"5 cents","100 minutes","24 days","4 days","29 students","10 dollars","has lost money.",1,0,0,1,1,0,1,0.571428571428571
"g69SvqyRbOonH6FPUgfqtwUgHR","ss9v92iOVYVvH53DeDpSBQP2qx",629214,29,FALSE,248019,"5 cents","5 minutes","47 days","4 days","30 students","0 dollars","is ahead of where he began.",1,1,1,1,0,0,0,0.571428571428571
"g7GCnqPVXq6f4UFE3fiac7LcXF","xEydvieMxbRvH1hxkMJm0vFz96",1549389,25,FALSE,245371,"5 cents","5 minutes","47 days","4 days","29 students","0 dollars","has lost money.",1,1,1,1,1,0,1,0.857142857142857
"g8KCIZRWhWn5rn2Q5OYuQ6wSW9","auXH19yY2lZZJXtdFCEckLJKod",3205406,1123,FALSE,110007,"5 cents","5 minutes","47 days","4 days","29 students","20 dollars","has lost money.",1,1,1,1,1,1,1,1
"g8usZAEmj5ydSPB7ZEfogqvjhB","8WLrdeMaTDW7IGUQbunncnR6KZ",1145259,410,FALSE,194843,"5 cents","5 minutes","47 days","4 days","29 students","20 dollars","has broken even in the stock market.",1,1,1,1,1,1,0,0.857142857142857
"g99sVhyh4cNj9Q3IUGtBXQ7wBH","YV4QBVaqyil1Y85MLCe8QCBrIA",242424,11,FALSE,232240,"9 cents","100 minutes","24 days","4 days","15 students","10 dollars","has lost money.",0,0,0,1,0,0,1,0.285714285714286
"gBlazIDgmJrBZKcap9VAjEtBOA","qJGNyB1YDAOlY2snGiaSyOkrOj",2633607,1116,FALSE,230656,"5 cents","100 minutes","47 days","4 days","29 students","20 dollars","has lost money.",1,0,1,1,1,1,1,0.857142857142857
"gBLVxFvB8oDbwDH2eJeHKm1dS0","1yQbI7srtJnGnLJsZ7Gk4Jo9FT",3142863,548,FALSE,166864,"10 cents","5 minutes","47 days","9 days","30 students","20 dollars","has lost money.",0,1,1,0,0,1,1,0.571428571428571
"gc4iKizvnAxiHuXJReIW1F69Lm","iyEXQ94dgVafVsZzvpbovgTBKC",2540881,1211,FALSE,102426,"5 cents","5 minutes","47 days","4 days","29 students","20 dollars","has lost money.",1,1,1,1,1,1,1,1
"gCDagHpTV5Lr4eZAQTxegX5XX7","18AdcKyxqOAydBOpvU29pAWAtK",872927,365,FALSE,189091,"5 cents","5 minutes","47 days","4 days","29 students","20 dollars","has lost money.",1,1,1,1,1,1,1,1
"gCj8tM03iOfz2VGm9a0nvNMHqP","rGjpZqE0ayIyYRFOgrxiad1x5x",5882005,617,FALSE,279939,"1 cent","100 minutes","47 days","9 days","1 student","10 dollars","is ahead of where he began.",0,0,1,0,0,0,0,0.142857142857143
"gdmrK0djH4qoaP097TXFGhk58Z","NGcCbXLGqXdyQJWZ4LqLEX6g4a",15558028,1249,FALSE,108760,"5 cents","5 minutes","47 days","4 days","30 students","30 dollars","has lost money.",1,1,1,1,0,0,1,0.714285714285714
"gdOp40JPvKZZK2rNnm5VGEHBhE","WuygbKd4EoG1l0btky2SiuIS1Z",432389,44,FALSE,118428,"10 cents","5 minutes","47 days","9 days","29 students","10 dollars","is ahead of where he began.",0,1,1,0,1,0,0,0.428571428571429
"GdOsobZOVui8D7ORhjHv7s8sOE","4FhnQ7ehvX5a44VrZBo6zg6HAQ",4351230,861,TRUE,281004,"10 cents","100 minutes","36 days","9 days","29 students","20 dollars","has lost money.",0,0,0,0,1,1,1,0.428571428571429
"Gee4lEydSgspL4bZ1EssUkpYJB","ZcXA7O8VEUtxwn41uNaxX1cruB",180229,11,FALSE,148634,"5 cents","5 minutes","12 days","9 days","30 students","10 dollars","has lost money.",1,1,0,0,0,0,1,0.428571428571429
"gGvbL7nOXxyc5T1UiP6R5fgnw0","QBjmdQ8TvimckBg4hUWU9EXNtb",1680218,180,FALSE,99230,"5 cents","500 minutes","12 days","9 days","30 students","10 dollars","is ahead of where he began.",1,0,0,0,0,0,0,0.142857142857143
"GgZOAsq5TU3RQQtZSytPJcWrd6","Tfw8Id4CipsfbutqECCraw7dUY",2965168,1001,FALSE,184290,"5 cents","5 minutes","47 days","4 days","29 students","20 dollars","has lost money.",1,1,1,1,1,1,1,1
"ghnm7j1nK1OKPK1Gy7fFXHSopL","JrA5zOy2BofFfMR5fq9gryIZrI",2568151,535,FALSE,198633,"5 cents","100 minutes","47 days","9 days","29 students","0 dollars","has lost money.",1,0,1,0,1,0,1,0.571428571428571
"ghooQM9Ku7eqAGonQH7QfZmWn2","TvYMfJPPK7hs7YYwNG7Mv4Yyow",2640230,212,FALSE,131014,"10 cents","100 minutes","47 days","4 days","29 students","20 dollars","has lost money.",0,0,1,1,1,1,1,0.714285714285714
"gHrrx9p1jCaf0TKMGTe2FhOkBf","a3e5vYcudYVye9bvRsBm2DcNFz",3951955,1235,FALSE,201649,"5 cents","5 minutes","47 days","4 days","29 students","20 dollars","has broken even in the stock market.",1,1,1,1,1,1,0,0.857142857142857
"gI3nFlJS6J9xNfIORSnzy826oT","W5Y3jiY7m7kP9NY3J8Qba6MF9f",324062,11,TRUE,281002,"10 cents","500 minutes","47 days","4 days","29 students",NA,NA,0,0,1,1,1,NA,NA,0.428571428571429
"gkQ2hRRoG5J870UrZ0oI4PnEvp","ZmwVKcbi4mDpMZgwkL8s5gqpd5",75891297,983,FALSE,232108,"10 cents","5 minutes","24 days","9 days","15 students","20 dollars","it cannot be determined.",0,1,0,0,0,1,0,0.285714285714286
"GlfBcYJFoiCvtkbbmxA4EXsjf2","uDW0LNoVhL422s6OlM3W02f2iB",101187417,937,TRUE,281010,"5 cents","100 minutes","47 days","4 days","15 students","20 dollars","has lost money.",1,0,1,1,0,1,1,0.714285714285714
"GLKnJOFoUXniYfwjH2TyZSsXD3","wkWZAVuppNELozH3X78CzZn0S9",1953173,805,FALSE,91625,"10 cents","5 minutes","47 days","4 days","30 students","10 dollars","has broken even in the stock market.",0,1,1,1,0,0,0,0.428571428571429
"gmKwjAMx7UGi5SbZGSpXHSEPhL","QqnEimi6eXoLGEyZTd9qsxrHMg",54613947,1292,FALSE,196062,"5 cents","5 minutes","47 days","4 days","29 students","20 dollars","has lost money.",1,1,1,1,1,1,1,1
"gMRfl1BjGhPEreiNnD8WAyZkxp","2IgJQpcq5QRF0E1BXEgbqTrhLU",86850534,862,FALSE,257019,"10 cents","100 minutes","24 days","4 days","1 student","0 dollars","has lost money.",0,0,0,1,0,0,1,0.285714285714286
"gMXhEF3bCS0R9oYzjN1TJhON91","leBCSRYegtZdHmXiv0TVZTz0MA",2281360,185,FALSE,175649,"10 cents","100 minutes","24 days","3 days","30 students","10 dollars","has lost money.",0,0,0,0,0,0,1,0.142857142857143
"gOOfiGi69gRSGzvNMPr8i6VLjW","wgRumgNfdj64aIPItw63gv6eNn",7139686,644,FALSE,190537,"10 cents","5 minutes","47 days","4 days","30 students","0 dollars","has lost money.",0,1,1,1,0,0,1,0.571428571428571
"GPorHl6yI3wCDd5kaFPpkwMJ5o","XiZW8KCeXWVaodi6PbuBg3gPlI",319881,11,FALSE,206612,"5 cents","5 minutes","47 days","4 days","29 students","20 dollars","has lost money.",1,1,1,1,1,1,1,1
"GPrV6gqjOoRAtaY0kZfYkupR6L","If8avH2fe5tiEx4wpvN2GadX6c",2207377,119,TRUE,281002,"10 cents","100 minutes","24 days","4 days","30 students","20 dollars",NA,0,0,0,1,0,1,NA,0.285714285714286
"GqKClPTAoFZySJCldqdDDIdxJH","Q4fWohdaA2UH5tfoB4D1qmW0wt",259889,11,FALSE,207780,"5 cents","100 minutes","24 days","12 days","29 students","20 dollars","has lost money.",1,0,0,0,1,1,1,0.571428571428571
"GQVTFjDB2IxzzrdRu2MlOIHPJ2","RZS5LdKasoixSnbXt42LS0gsOg",1214324,11,FALSE,153215,"5 cents","500 minutes","47 days","4 days","30 students","20 dollars","has lost money.",1,0,1,1,0,1,1,0.714285714285714
"gR5DDXXxP0PcRs9LLu0eboOBn1","mGTL3XvSJYlpsQSH6bPcSxfOmM",3163847,800,FALSE,253064,"5 cents","5 minutes","47 days","4 days","29 students","10 dollars","has broken even in the stock market.",1,1,1,1,1,0,0,0.714285714285714
"GrJ1crpW3aH0H3ZnHH4H6GPRTy","zNjgDYlNxXg1MPHEvtKKfvUIu4",2110473,845,FALSE,174389,"10 cents","100 minutes","47 days","9 days","29 students","20 dollars","it cannot be determined.",0,0,1,0,1,1,0,0.428571428571429
"gRo5yeK49np9yfp6xa2wCm13Xg","PYCU6AIdBdtuU9pufRzBKUG5yg",173309595,1279,FALSE,99989,"10 cents","20 minutes","24 days","9 days","1 student","20 dollars","it cannot be determined.",0,0,0,0,0,1,0,0.142857142857143
"gRxa96FZn92vdJaVgQhUuefYCN","4AVJmkZ5EAgJsHtrAZ8uZqrqWb",4178012,1303,FALSE,67661,"10 cents","5 minutes","12 days","3 days","30 students","30 dollars","it cannot be determined.",0,1,0,0,0,0,0,0.142857142857143
"GT0k8lc3ldWIUSTXxk01f100xG","Yfxh4QMWvdo4lZHiymG5ML9Beo",315910,29,FALSE,170263,"10 cents","5 minutes","47 days","4 days","29 students","20 dollars","has lost money.",0,1,1,1,1,1,1,0.857142857142857
"gTaHuHvKJwSbnH7aXE4gWuYZGM","T2XfU1ZqdW5XLCetAmfxuHL6hG",52974566,1219,FALSE,90098,"10 cents","100 minutes","47 days","9 days","30 students","10 dollars","is ahead of where he began.",0,0,1,0,0,0,0,0.142857142857143
"GVRVm6zYhtGI8Zh35R4YWWuWeQ","lIaJstaPqqkKEGy7RXgrKGA9OW",8594002,1291,FALSE,181232,"5 cents","20 minutes","47 days","9 days","29 students","30 dollars","has lost money.",1,0,1,0,1,0,1,0.571428571428571
"GWRce6ysDXOWhJhv23j4mOPvOm","1pRGnFnXJcCLq1ZOkOqBAEu2yv",5256614,1275,FALSE,120318,"10 cents","100 minutes","24 days","3 days","1 student","20 dollars","is ahead of where he began.",0,0,0,0,0,1,0,0.142857142857143
"H0qi32N2uCTMnsPNnnqO11uB5H","PzfL2qUl8AAHya4KwmmrWCpwlP",1699824,115,TRUE,281002,"10 cents","5 minutes","47 days","4 days","29 students","10 dollars",NA,0,1,1,1,1,0,NA,0.571428571428571
"H1c2X4fS7ZnsTLOPyV16KxVdj0","cjaPox773o5ZQTIad2KMv6UBDs",1939808,752,FALSE,115428,"10 cents","100 minutes","24 days","9 days","30 students","10 dollars","is ahead of where he began.",0,0,0,0,0,0,0,0
"h1LjPYsajz6nTjv2VBf6v1sDMy","OU06b4qw1I8WUxnVa732o0PQtE",1996592,999,FALSE,219518,"10 cents","5 minutes","12 days","3 days","30 students","20 dollars","has lost money.",0,1,0,0,0,1,1,0.428571428571429
"H2Em4ggrGQrMN5Tw4w76bRX6rM","daM3KQrnYsDNpg4jX7sVGu4FHg",250272,11,FALSE,227910,"10 cents","20 minutes","24 days","4 days","30 students","10 dollars","is ahead of where he began.",0,0,0,1,0,0,0,0.142857142857143
"h2Gtup4npVhmn2BNYyy5EANzwA","UT0ChxRmvqUMjwB2yLwdui2qrZ",6496383,1291,FALSE,200791,"10 cents","5 minutes","24 days","4 days","29 students","10 dollars","is ahead of where he began.",0,1,0,1,1,0,0,0.428571428571429
"h2WLatu7wHQ4ORwFPBkGakZIb8","Xyshkmt7Ki1C7irItZ2iiQAaiz",307987,11,FALSE,278106,"10 cents","100 minutes","24 days","9 days","30 students","10 dollars","is ahead of where he began.",0,0,0,0,0,0,0,0
"H3W080Jri7xTVLGxjjEnGbAMkK","pChLclo9OqnJ99nseppP5jMqxH",25268884,626,FALSE,91570,"10 cents","100 minutes","24 days","3 days","30 students","20 dollars","is ahead of where he began.",0,0,0,0,0,1,0,0.142857142857143
"H44YweTpAEQ9nlbVirptIv52PQ","kvHQk36ZtffWhbPqdsZB0rSpb7",3624703,1303,FALSE,14937,"10 cents","20 minutes","36 days","9 days","1 student","0 dollars","has broken even in the stock market.",0,0,0,0,0,0,0,0
"H53lwefQ7OaTADbbk7vQ77MowT","ZjYfMmmh2iTlwenzWBnUpWi1jF",5572339,959,FALSE,189318,"10 cents","5 minutes","24 days","9 days","1 student","20 dollars","it cannot be determined.",0,1,0,0,0,1,0,0.285714285714286
"H5inZz7fsqXsWI2mJZMSX5NTMC","gZqHmcrVcENJmFGnyEvbk44vph",929937,68,FALSE,147104,"10 cents","5 minutes","24 days","3 days","1 student","10 dollars","is ahead of where he began.",0,1,0,0,0,0,0,0.142857142857143
"H61u3sEO1uiSjzklgsXog87gI4","9WJOXXTzF2NxjN683ad0W3dY1a",4342501,1138,FALSE,228776,"10 cents","100 minutes","24 days","12 days","30 students","20 dollars","has broken even in the stock market.",0,0,0,0,0,1,0,0.142857142857143
"h6tkgXRxpXXNEnrcPbx5T7QbAD","2NpSHc05PJ17Fi6aPVTCD5WmGn",405171,11,TRUE,280998,"10 cents","5 minutes","47 days","4 days","30 students","0 dollars",NA,0,1,1,1,0,0,NA,0.428571428571429
"HAlYR1GX1pTh7uCO95r6wM8Ok1","TH7k5AwJe0c77tQaVro8TYHjmu",7684424,727,FALSE,168820,"10 cents","100 minutes","24 days","4 days","15 students","0 dollars","has lost money.",0,0,0,1,0,0,1,0.285714285714286
"Haxqcvs3xe6QEHfxWqp4iY4ehg","7o7poQGqx1nSY68I3VyhWDSI7P",5929546,1260,FALSE,207151,"10 cents","100 minutes","24 days","4 days","30 students","20 dollars","has lost money.",0,0,0,1,0,1,1,0.428571428571429
"hAxz35LWCMHALChKfkyjeUcFHH","9LLvCodBAW1Cf2j7ZBIsILKkYr",3576597,831,FALSE,175598,"5 cents","5 minutes","47 days","4 days","29 students","20 dollars","has lost money.",1,1,1,1,1,1,1,1
"HbeOhc5eLGW3JEvz4hB6V3Yimn","Nhpu0aeufJZyOqkZUhSHNwNWdo",2362771,1066,FALSE,123763,"5 cents","5 minutes","47 days","4 days","29 students","20 dollars","has lost money.",1,1,1,1,1,1,1,1
"hdFzcI8yspwO1RUYlElj6SM1du","srLWOYflDyVLQKEjvBR6u5OEYi",152834,11,FALSE,146072,"10 cents","500 minutes","24 days","3 days","30 students","10 dollars","is ahead of where he began.",0,0,0,0,0,0,0,0
"HDs12VYnOVlSAR1ngvLpMPCAqx","fTymWCT5vai8YM1rJRk9cEgMFk",9848783,1027,FALSE,185332,"5 cents","100 minutes","47 days","4 days","29 students","10 dollars","has lost money.",1,0,1,1,1,0,1,0.714285714285714
"hGe0kFUDxz139N4PUKh7SJZz4Z","yBworzDxmD8lipMRCSrBK5OVoF",77417384,1252,FALSE,220116,"10 cents","5 minutes","12 days","4 days","30 students","10 dollars","has lost money.",0,1,0,1,0,0,1,0.428571428571429
"hgqiER6MwJwmdGSDigdOR0CqoC","NoU07ASskySb05QYxnAVzqTIB4",3072211,1073,FALSE,177085,"10 cents","100 minutes","24 days","3 days","30 students","0 dollars","has lost money.",0,0,0,0,0,0,1,0.142857142857143
"HhEnTtc2FzuI5yARdc3SRN6hFP","R7UZySmGqo4Uy05sgJ6vZtDuj3",15825056,1289,FALSE,123252,"10 cents","5 minutes","47 days","4 days","30 students","20 dollars","is ahead of where he began.",0,1,1,1,0,1,0,0.571428571428571
"HHpF8yCOY1FgHiFzN0ok9Xe3Bn","Mfu5qjQ8Qtxk3wnetF9s8xKAfC",5103630,1304,FALSE,156145,"10 cents","5 minutes","12 days","9 days","15 students","10 dollars","is ahead of where he began.",0,1,0,0,0,0,0,0.142857142857143
