"session_id","session_restart_id","time_elapsed","trial_index","custom_timer_ended_trial","trial_name","rt","ns_id","ns_response","correct_answer","correct"
"0AJe17yTnscnQdDkkzrQujSpwV","K2CT0IsLiI8W0lOPyrwxmR5FD0",4943024,141,FALSE,"number_series_test_trial",10009,"NS_1","-2","-2",1
"0AJe17yTnscnQdDkkzrQujSpwV","K2CT0IsLiI8W0lOPyrwxmR5FD0",4957243,142,FALSE,"number_series_test_trial",14208,"NS_2","28","28",1
"0AJe17yTnscnQdDkkzrQujSpwV","K2CT0IsLiI8W0lOPyrwxmR5FD0",4971167,143,FALSE,"number_series_test_trial",13911,"NS_3","64","64",1
"0AJe17yTnscnQdDkkzrQujSpwV","K2CT0IsLiI8W0lOPyrwxmR5FD0",4994954,144,FALSE,"number_series_test_trial",23772,"NS_4","29","29",1
"0AJe17yTnscnQdDkkzrQujSpwV","K2CT0IsLiI8W0lOPyrwxmR5FD0",5025970,145,TRUE,"number_series_test_trial",31002,"NS_5",NA,"8/16",NA
"0AJe17yTnscnQdDkkzrQujSpwV","K2CT0IsLiI8W0lOPyrwxmR5FD0",5056980,146,TRUE,"number_series_test_trial",30998,"NS_6",NA,"165",NA
"0AJe17yTnscnQdDkkzrQujSpwV","K2CT0IsLiI8W0lOPyrwxmR5FD0",5087993,147,TRUE,"number_series_test_trial",31000,"NS_7","10","43",0
"0AJe17yTnscnQdDkkzrQujSpwV","K2CT0IsLiI8W0lOPyrwxmR5FD0",5115718,148,FALSE,"number_series_test_trial",27711,"NS_8","8800","8900",0
"0AJe17yTnscnQdDkkzrQujSpwV","K2CT0IsLiI8W0lOPyrwxmR5FD0",5136592,149,FALSE,"number_series_test_trial",20861,"NS_9","10/14","12/16",0
"0cIniih0zGVLugJAhIvoynm7SN","0I8218AoreLXbxA6yAekp7UbkT",395513,41,FALSE,"number_series_test_trial",10837,"NS_1","-2","-2",1
"0cIniih0zGVLugJAhIvoynm7SN","0I8218AoreLXbxA6yAekp7UbkT",404251,42,FALSE,"number_series_test_trial",8733,"NS_2","28","28",1
"0cIniih0zGVLugJAhIvoynm7SN","0I8218AoreLXbxA6yAekp7UbkT",421217,43,FALSE,"number_series_test_trial",16959,"NS_3","64","64",1
"0cIniih0zGVLugJAhIvoynm7SN","0I8218AoreLXbxA6yAekp7UbkT",438123,44,FALSE,"number_series_test_trial",16899,"NS_4","29","29",1
"0cIniih0zGVLugJAhIvoynm7SN","0I8218AoreLXbxA6yAekp7UbkT",467679,45,FALSE,"number_series_test_trial",29550,"NS_5","8/16","8/16",1
"0cIniih0zGVLugJAhIvoynm7SN","0I8218AoreLXbxA6yAekp7UbkT",475537,46,FALSE,"number_series_test_trial",7854,"NS_6","166","165",0
"0cIniih0zGVLugJAhIvoynm7SN","0I8218AoreLXbxA6yAekp7UbkT",506543,47,TRUE,"number_series_test_trial",31002,"NS_7","30","43",0
"0cIniih0zGVLugJAhIvoynm7SN","0I8218AoreLXbxA6yAekp7UbkT",530894,48,FALSE,"number_series_test_trial",24341,"NS_8","8891","8900",0
"0cIniih0zGVLugJAhIvoynm7SN","0I8218AoreLXbxA6yAekp7UbkT",561898,49,TRUE,"number_series_test_trial",30999,"NS_9","10/","12/16",0
"0DARnsbleA8l9r84MLWLQDcr2A","U2kZDu937PzpS9Qk1pYpQkqsKF",5312488,833,FALSE,"number_series_test_trial",6873,"NS_1","8","-2",0
"0DARnsbleA8l9r84MLWLQDcr2A","U2kZDu937PzpS9Qk1pYpQkqsKF",5320130,834,FALSE,"number_series_test_trial",7633,"NS_2","28","28",1
"0DARnsbleA8l9r84MLWLQDcr2A","U2kZDu937PzpS9Qk1pYpQkqsKF",5351182,835,TRUE,"number_series_test_trial",31046,"NS_3",NA,"64",NA
"0DARnsbleA8l9r84MLWLQDcr2A","U2kZDu937PzpS9Qk1pYpQkqsKF",5382238,836,TRUE,"number_series_test_trial",31044,"NS_4",NA,"29",NA
"0DARnsbleA8l9r84MLWLQDcr2A","U2kZDu937PzpS9Qk1pYpQkqsKF",5413288,837,TRUE,"number_series_test_trial",31045,"NS_5","9/15","8/16",0
"0DARnsbleA8l9r84MLWLQDcr2A","U2kZDu937PzpS9Qk1pYpQkqsKF",5444339,838,TRUE,"number_series_test_trial",31045,"NS_6",NA,"165",NA
"0DARnsbleA8l9r84MLWLQDcr2A","U2kZDu937PzpS9Qk1pYpQkqsKF",5467484,839,FALSE,"number_series_test_trial",23139,"NS_7","43","43",1
"0DARnsbleA8l9r84MLWLQDcr2A","U2kZDu937PzpS9Qk1pYpQkqsKF",5498529,840,TRUE,"number_series_test_trial",31036,"NS_8","88","8900",0
"0DARnsbleA8l9r84MLWLQDcr2A","U2kZDu937PzpS9Qk1pYpQkqsKF",5529580,841,TRUE,"number_series_test_trial",31046,"NS_9","12/","12/16",0
"0DEZ1s0f0nL0RnrJSeHg0aGp5O","kThZ34Ul9ItYv63Kq24BkXD4Mc",1460123,95,FALSE,"number_series_test_trial",16318,"NS_1","-2","-2",1
"0DEZ1s0f0nL0RnrJSeHg0aGp5O","kThZ34Ul9ItYv63Kq24BkXD4Mc",1468795,96,FALSE,"number_series_test_trial",8670,"NS_2","28","28",1
"0DEZ1s0f0nL0RnrJSeHg0aGp5O","kThZ34Ul9ItYv63Kq24BkXD4Mc",1494091,97,FALSE,"number_series_test_trial",25294,"NS_3","64","64",1
"0DEZ1s0f0nL0RnrJSeHg0aGp5O","kThZ34Ul9ItYv63Kq24BkXD4Mc",1525093,98,TRUE,"number_series_test_trial",31001,"NS_4",NA,"29",NA
"0DEZ1s0f0nL0RnrJSeHg0aGp5O","kThZ34Ul9ItYv63Kq24BkXD4Mc",1556096,99,TRUE,"number_series_test_trial",30999,"NS_5","8/","8/16",0
"0DEZ1s0f0nL0RnrJSeHg0aGp5O","kThZ34Ul9ItYv63Kq24BkXD4Mc",1581523,100,FALSE,"number_series_test_trial",25426,"NS_6","137","165",0
"0DEZ1s0f0nL0RnrJSeHg0aGp5O","kThZ34Ul9ItYv63Kq24BkXD4Mc",1612526,101,TRUE,"number_series_test_trial",31001,"NS_7","10","43",0
"0DEZ1s0f0nL0RnrJSeHg0aGp5O","kThZ34Ul9ItYv63Kq24BkXD4Mc",1642954,102,FALSE,"number_series_test_trial",30425,"NS_8","8990","8900",0
"0DEZ1s0f0nL0RnrJSeHg0aGp5O","kThZ34Ul9ItYv63Kq24BkXD4Mc",1664675,103,FALSE,"number_series_test_trial",21720,"NS_9","10/40","12/16",0
"0gUy8npz5GjwfN9oGmScOumKJ6","sIu0lEnWHZ3BBI2MCi8l8qBqGF",64358,12,FALSE,"number_series_test_trial",17473,"NS_1","-2","-2",1
"0gUy8npz5GjwfN9oGmScOumKJ6","sIu0lEnWHZ3BBI2MCi8l8qBqGF",71640,13,FALSE,"number_series_test_trial",7276,"NS_2","28","28",1
"0gUy8npz5GjwfN9oGmScOumKJ6","sIu0lEnWHZ3BBI2MCi8l8qBqGF",85025,14,FALSE,"number_series_test_trial",13377,"NS_3","60","64",0
"0gUy8npz5GjwfN9oGmScOumKJ6","sIu0lEnWHZ3BBI2MCi8l8qBqGF",113078,15,FALSE,"number_series_test_trial",28046,"NS_4","18","29",0
"0gUy8npz5GjwfN9oGmScOumKJ6","sIu0lEnWHZ3BBI2MCi8l8qBqGF",144104,16,TRUE,"number_series_test_trial",31019,"NS_5",NA,"8/16",NA
"0gUy8npz5GjwfN9oGmScOumKJ6","sIu0lEnWHZ3BBI2MCi8l8qBqGF",175125,17,TRUE,"number_series_test_trial",31015,"NS_6",NA,"165",NA
"0gUy8npz5GjwfN9oGmScOumKJ6","sIu0lEnWHZ3BBI2MCi8l8qBqGF",206155,18,TRUE,"number_series_test_trial",31023,"NS_7",NA,"43",NA
"0gUy8npz5GjwfN9oGmScOumKJ6","sIu0lEnWHZ3BBI2MCi8l8qBqGF",228427,19,FALSE,"number_series_test_trial",22267,"NS_8","8100","8900",0
"0gUy8npz5GjwfN9oGmScOumKJ6","sIu0lEnWHZ3BBI2MCi8l8qBqGF",255675,20,FALSE,"number_series_test_trial",27243,"NS_9","12/14","12/16",0
"0GwhdS5QTk1z6AOW2zROrpS4Dz","DrAu4SiCMUkIAmphOduaJOnA4G",1781473,1035,FALSE,"number_series_test_trial",24620,"NS_1","1","-2",0
"0GwhdS5QTk1z6AOW2zROrpS4Dz","DrAu4SiCMUkIAmphOduaJOnA4G",1796808,1036,FALSE,"number_series_test_trial",15334,"NS_2","28","28",1
"0GwhdS5QTk1z6AOW2zROrpS4Dz","DrAu4SiCMUkIAmphOduaJOnA4G",1814040,1037,FALSE,"number_series_test_trial",17230,"NS_3","58","64",0
"0GwhdS5QTk1z6AOW2zROrpS4Dz","DrAu4SiCMUkIAmphOduaJOnA4G",1839192,1038,FALSE,"number_series_test_trial",25150,"NS_4","31","29",0
"0GwhdS5QTk1z6AOW2zROrpS4Dz","DrAu4SiCMUkIAmphOduaJOnA4G",1870195,1039,TRUE,"number_series_test_trial",31001,"NS_5",NA,"8/16",NA
"0GwhdS5QTk1z6AOW2zROrpS4Dz","DrAu4SiCMUkIAmphOduaJOnA4G",1892344,1040,FALSE,"number_series_test_trial",22148,"NS_6","143","165",0
"0GwhdS5QTk1z6AOW2zROrpS4Dz","DrAu4SiCMUkIAmphOduaJOnA4G",1914336,1041,FALSE,"number_series_test_trial",21990,"NS_7","5","43",0
"0GwhdS5QTk1z6AOW2zROrpS4Dz","DrAu4SiCMUkIAmphOduaJOnA4G",1945340,1042,TRUE,"number_series_test_trial",31001,"NS_8",NA,"8900",NA
"0GwhdS5QTk1z6AOW2zROrpS4Dz","DrAu4SiCMUkIAmphOduaJOnA4G",1964696,1043,FALSE,"number_series_test_trial",19353,"NS_9","10/14","12/16",0
"0iDjEfaVVovRIRwOd2LRACKp6p","aKZw5z25YMbW64nSw0X5ra3uxh",4394490,704,FALSE,"number_series_test_trial",24665,"NS_1","-2","-2",1
"0iDjEfaVVovRIRwOd2LRACKp6p","aKZw5z25YMbW64nSw0X5ra3uxh",4402477,705,FALSE,"number_series_test_trial",7983,"NS_2","28","28",1
"0iDjEfaVVovRIRwOd2LRACKp6p","aKZw5z25YMbW64nSw0X5ra3uxh",4413829,706,FALSE,"number_series_test_trial",11350,"NS_3","72","64",0
"0iDjEfaVVovRIRwOd2LRACKp6p","aKZw5z25YMbW64nSw0X5ra3uxh",4444835,707,TRUE,"number_series_test_trial",31003,"NS_4",NA,"29",NA
"0iDjEfaVVovRIRwOd2LRACKp6p","aKZw5z25YMbW64nSw0X5ra3uxh",4468997,708,FALSE,"number_series_test_trial",24159,"NS_5","8/16","8/16",1
"0iDjEfaVVovRIRwOd2LRACKp6p","aKZw5z25YMbW64nSw0X5ra3uxh",4495852,709,FALSE,"number_series_test_trial",26852,"NS_6","162","165",0
"0iDjEfaVVovRIRwOd2LRACKp6p","aKZw5z25YMbW64nSw0X5ra3uxh",4526860,710,TRUE,"number_series_test_trial",31005,"NS_7",NA,"43",NA
"0iDjEfaVVovRIRwOd2LRACKp6p","aKZw5z25YMbW64nSw0X5ra3uxh",4557867,711,TRUE,"number_series_test_trial",31004,"NS_8","8999","8900",0
"0iDjEfaVVovRIRwOd2LRACKp6p","aKZw5z25YMbW64nSw0X5ra3uxh",4568660,712,FALSE,"number_series_test_trial",10790,"NS_9","12/16","12/16",1
"0j4k6YJS8JEFyFDvqdEyTmAoHU","xuocOex2iQbLbBRWGxFPDtui0i",7000401,1213,FALSE,"number_series_test_trial",13487,"NS_1","-2","-2",1
"0j4k6YJS8JEFyFDvqdEyTmAoHU","xuocOex2iQbLbBRWGxFPDtui0i",7014090,1214,FALSE,"number_series_test_trial",13682,"NS_2","28","28",1
"0j4k6YJS8JEFyFDvqdEyTmAoHU","xuocOex2iQbLbBRWGxFPDtui0i",7040743,1215,FALSE,"number_series_test_trial",26646,"NS_3","64","64",1
"0j4k6YJS8JEFyFDvqdEyTmAoHU","xuocOex2iQbLbBRWGxFPDtui0i",7071750,1216,TRUE,"number_series_test_trial",30998,"NS_4",NA,"29",NA
"0j4k6YJS8JEFyFDvqdEyTmAoHU","xuocOex2iQbLbBRWGxFPDtui0i",7102755,1217,TRUE,"number_series_test_trial",30998,"NS_5",NA,"8/16",NA
"0j4k6YJS8JEFyFDvqdEyTmAoHU","xuocOex2iQbLbBRWGxFPDtui0i",7133764,1218,TRUE,"number_series_test_trial",31001,"NS_6",NA,"165",NA
"0j4k6YJS8JEFyFDvqdEyTmAoHU","xuocOex2iQbLbBRWGxFPDtui0i",7164771,1219,TRUE,"number_series_test_trial",31001,"NS_7",NA,"43",NA
"0j4k6YJS8JEFyFDvqdEyTmAoHU","xuocOex2iQbLbBRWGxFPDtui0i",7195779,1220,TRUE,"number_series_test_trial",31002,"NS_8",NA,"8900",NA
"0j4k6YJS8JEFyFDvqdEyTmAoHU","xuocOex2iQbLbBRWGxFPDtui0i",7237012,1221,TRUE,"number_series_test_trial",30997,"NS_9","12","12/16",0
"0JATTVloQDUPcURXgFRCR2xTNZ","RZUk5w1f3RbZa8VtMaZ6Cs85MS",327877,26,TRUE,"number_series_test_trial",30996,"NS_1",NA,"-2",NA
"0JATTVloQDUPcURXgFRCR2xTNZ","RZUk5w1f3RbZa8VtMaZ6Cs85MS",358067,27,FALSE,"number_series_test_trial",30187,"NS_2","28","28",1
"0JATTVloQDUPcURXgFRCR2xTNZ","RZUk5w1f3RbZa8VtMaZ6Cs85MS",384633,28,FALSE,"number_series_test_trial",26564,"NS_3","70","64",0
"0JATTVloQDUPcURXgFRCR2xTNZ","RZUk5w1f3RbZa8VtMaZ6Cs85MS",415634,29,TRUE,"number_series_test_trial",30999,"NS_4","3","29",0
"0JATTVloQDUPcURXgFRCR2xTNZ","RZUk5w1f3RbZa8VtMaZ6Cs85MS",446635,30,TRUE,"number_series_test_trial",30998,"NS_5",NA,"8/16",NA
"0JATTVloQDUPcURXgFRCR2xTNZ","RZUk5w1f3RbZa8VtMaZ6Cs85MS",477564,31,FALSE,"number_series_test_trial",30927,"NS_6","156","165",0
"0JATTVloQDUPcURXgFRCR2xTNZ","RZUk5w1f3RbZa8VtMaZ6Cs85MS",508566,32,TRUE,"number_series_test_trial",30999,"NS_7",NA,"43",NA
"0JATTVloQDUPcURXgFRCR2xTNZ","RZUk5w1f3RbZa8VtMaZ6Cs85MS",527289,33,FALSE,"number_series_test_trial",18721,"NS_8","8900","8900",1
"0JATTVloQDUPcURXgFRCR2xTNZ","RZUk5w1f3RbZa8VtMaZ6Cs85MS",558290,34,TRUE,"number_series_test_trial",30999,"NS_9","9","12/16",0
"0jse7la9qJsHrckhn7FWUDhLOi","kfA9TAcQYnPRS8SfE3ghlX6uzC",2409373,88,FALSE,"number_series_test_trial",20707,"NS_1","7","-2",0
"0jse7la9qJsHrckhn7FWUDhLOi","kfA9TAcQYnPRS8SfE3ghlX6uzC",2425145,89,FALSE,"number_series_test_trial",15762,"NS_2","28","28",1
"0jse7la9qJsHrckhn7FWUDhLOi","kfA9TAcQYnPRS8SfE3ghlX6uzC",2450863,90,FALSE,"number_series_test_trial",25705,"NS_3","64","64",1
"0jse7la9qJsHrckhn7FWUDhLOi","kfA9TAcQYnPRS8SfE3ghlX6uzC",2464819,91,FALSE,"number_series_test_trial",13940,"NS_4","29","29",1
"0jse7la9qJsHrckhn7FWUDhLOi","kfA9TAcQYnPRS8SfE3ghlX6uzC",2495831,92,TRUE,"number_series_test_trial",30998,"NS_5",NA,"8/16",NA
"0jse7la9qJsHrckhn7FWUDhLOi","kfA9TAcQYnPRS8SfE3ghlX6uzC",2526841,93,TRUE,"number_series_test_trial",30993,"NS_6",NA,"165",NA
"0jse7la9qJsHrckhn7FWUDhLOi","kfA9TAcQYnPRS8SfE3ghlX6uzC",2556120,94,FALSE,"number_series_test_trial",29268,"NS_7","5","43",0
"0jse7la9qJsHrckhn7FWUDhLOi","kfA9TAcQYnPRS8SfE3ghlX6uzC",2587128,95,TRUE,"number_series_test_trial",30999,"NS_8","8900","8900",1
"0jse7la9qJsHrckhn7FWUDhLOi","kfA9TAcQYnPRS8SfE3ghlX6uzC",2618145,96,TRUE,"number_series_test_trial",30999,"NS_9",NA,"12/16",NA
"0MKKSANshRTeskZx0TrUZtDeuY","Yd655r4YqJuAxPgAdFleuh51d9",2417353,761,FALSE,"number_series_test_trial",10061,"NS_1","-2","-2",1
"0MKKSANshRTeskZx0TrUZtDeuY","Yd655r4YqJuAxPgAdFleuh51d9",2443844,762,FALSE,"number_series_test_trial",26485,"NS_2","30","28",0
"0MKKSANshRTeskZx0TrUZtDeuY","Yd655r4YqJuAxPgAdFleuh51d9",2451552,763,FALSE,"number_series_test_trial",7705,"NS_3","64","64",1
"0MKKSANshRTeskZx0TrUZtDeuY","Yd655r4YqJuAxPgAdFleuh51d9",2473224,764,FALSE,"number_series_test_trial",21667,"NS_4","29","29",1
"0MKKSANshRTeskZx0TrUZtDeuY","Yd655r4YqJuAxPgAdFleuh51d9",2503818,765,FALSE,"number_series_test_trial",30590,"NS_5","18/3","8/16",0
"0MKKSANshRTeskZx0TrUZtDeuY","Yd655r4YqJuAxPgAdFleuh51d9",2512694,766,FALSE,"number_series_test_trial",8872,"NS_6","69","165",0
"0MKKSANshRTeskZx0TrUZtDeuY","Yd655r4YqJuAxPgAdFleuh51d9",2542642,767,FALSE,"number_series_test_trial",29946,"NS_7","37","43",0
"0MKKSANshRTeskZx0TrUZtDeuY","Yd655r4YqJuAxPgAdFleuh51d9",2565632,768,FALSE,"number_series_test_trial",22986,"NS_8","8900","8900",1
"0MKKSANshRTeskZx0TrUZtDeuY","Yd655r4YqJuAxPgAdFleuh51d9",2596653,769,TRUE,"number_series_test_trial",31015,"NS_9","12/14","12/16",0
"0n2j2Y1nH0v16ERGCb74llMutm","LJxufVtfBDBg0vATItBhNfwFwT",78239755,610,FALSE,"number_series_test_trial",15003,"NS_1","-2","-2",1
"0n2j2Y1nH0v16ERGCb74llMutm","LJxufVtfBDBg0vATItBhNfwFwT",78270768,611,TRUE,"number_series_test_trial",30998,"NS_2",NA,"28",NA
"0n2j2Y1nH0v16ERGCb74llMutm","LJxufVtfBDBg0vATItBhNfwFwT",78283669,612,FALSE,"number_series_test_trial",12895,"NS_3","64","64",1
"0n2j2Y1nH0v16ERGCb74llMutm","LJxufVtfBDBg0vATItBhNfwFwT",78314677,613,TRUE,"number_series_test_trial",31000,"NS_4",NA,"29",NA
"0n2j2Y1nH0v16ERGCb74llMutm","LJxufVtfBDBg0vATItBhNfwFwT",78345682,614,TRUE,"number_series_test_trial",31000,"NS_5","8","8/16",0
"0n2j2Y1nH0v16ERGCb74llMutm","LJxufVtfBDBg0vATItBhNfwFwT",78376689,615,TRUE,"number_series_test_trial",30999,"NS_6",NA,"165",NA
"0n2j2Y1nH0v16ERGCb74llMutm","LJxufVtfBDBg0vATItBhNfwFwT",78407695,616,TRUE,"number_series_test_trial",31000,"NS_7",NA,"43",NA
"0n2j2Y1nH0v16ERGCb74llMutm","LJxufVtfBDBg0vATItBhNfwFwT",78436004,617,FALSE,"number_series_test_trial",28303,"NS_8","9100","8900",0
"0n2j2Y1nH0v16ERGCb74llMutm","LJxufVtfBDBg0vATItBhNfwFwT",78464209,618,FALSE,"number_series_test_trial",28195,"NS_9","9/16","12/16",0
"0NDXuhn5pY8iG9LkLzwpnpkmsU","HNkFhMwVGNWKJaEXKMyv3aCKCY",3730547,1285,FALSE,"number_series_test_trial",11179,"NS_1","-2","-2",1
"0NDXuhn5pY8iG9LkLzwpnpkmsU","HNkFhMwVGNWKJaEXKMyv3aCKCY",3740776,1286,FALSE,"number_series_test_trial",10215,"NS_2","28","28",1
"0NDXuhn5pY8iG9LkLzwpnpkmsU","HNkFhMwVGNWKJaEXKMyv3aCKCY",3760028,1287,FALSE,"number_series_test_trial",19242,"NS_3","64","64",1
"0NDXuhn5pY8iG9LkLzwpnpkmsU","HNkFhMwVGNWKJaEXKMyv3aCKCY",3776512,1288,FALSE,"number_series_test_trial",16473,"NS_4","30","29",0
"0NDXuhn5pY8iG9LkLzwpnpkmsU","HNkFhMwVGNWKJaEXKMyv3aCKCY",3807547,1289,TRUE,"number_series_test_trial",31025,"NS_5",NA,"8/16",NA
"0NDXuhn5pY8iG9LkLzwpnpkmsU","HNkFhMwVGNWKJaEXKMyv3aCKCY",3836577,1290,FALSE,"number_series_test_trial",29022,"NS_6","0","165",0
"0NDXuhn5pY8iG9LkLzwpnpkmsU","HNkFhMwVGNWKJaEXKMyv3aCKCY",3865145,1291,FALSE,"number_series_test_trial",28557,"NS_7","43","43",1
"0NDXuhn5pY8iG9LkLzwpnpkmsU","HNkFhMwVGNWKJaEXKMyv3aCKCY",3890909,1292,FALSE,"number_series_test_trial",25753,"NS_8","8900","8900",1
"0NDXuhn5pY8iG9LkLzwpnpkmsU","HNkFhMwVGNWKJaEXKMyv3aCKCY",3903758,1293,FALSE,"number_series_test_trial",12839,"NS_9","12/16","12/16",1
"0PtrKyW9Qq4OrbYnTINnC15Quo","kqwo28VojGfDs8eOwx1q5kKbqs",979364,151,FALSE,"number_series_test_trial",10774,"NS_1","-2","-2",1
"0PtrKyW9Qq4OrbYnTINnC15Quo","kqwo28VojGfDs8eOwx1q5kKbqs",986609,152,FALSE,"number_series_test_trial",7237,"NS_2","28","28",1
"0PtrKyW9Qq4OrbYnTINnC15Quo","kqwo28VojGfDs8eOwx1q5kKbqs",994828,153,FALSE,"number_series_test_trial",8208,"NS_3","64","64",1
"0PtrKyW9Qq4OrbYnTINnC15Quo","kqwo28VojGfDs8eOwx1q5kKbqs",1006453,154,FALSE,"number_series_test_trial",11612,"NS_4","29","29",1
"0PtrKyW9Qq4OrbYnTINnC15Quo","kqwo28VojGfDs8eOwx1q5kKbqs",1025645,155,FALSE,"number_series_test_trial",19185,"NS_5","8/16","8/16",1
"0PtrKyW9Qq4OrbYnTINnC15Quo","kqwo28VojGfDs8eOwx1q5kKbqs",1051985,156,FALSE,"number_series_test_trial",26330,"NS_6","150","165",0
"0PtrKyW9Qq4OrbYnTINnC15Quo","kqwo28VojGfDs8eOwx1q5kKbqs",1069370,157,FALSE,"number_series_test_trial",17376,"NS_7","43","43",1
"0PtrKyW9Qq4OrbYnTINnC15Quo","kqwo28VojGfDs8eOwx1q5kKbqs",1082433,158,FALSE,"number_series_test_trial",13056,"NS_8","8900","8900",1
"0PtrKyW9Qq4OrbYnTINnC15Quo","kqwo28VojGfDs8eOwx1q5kKbqs",1091424,159,FALSE,"number_series_test_trial",8982,"NS_9","12/14","12/16",0
"0Q3B6QXM9FjB9K71ctmP088i3r","Qhr3A5jDGJRuffj2q2FmqVcIOj",65289,12,TRUE,"number_series_test_trial",31015,"NS_1",NA,"-2",NA
"0Q3B6QXM9FjB9K71ctmP088i3r","Qhr3A5jDGJRuffj2q2FmqVcIOj",71920,13,FALSE,"number_series_test_trial",6612,"NS_2","-2","28",0
"0Q3B6QXM9FjB9K71ctmP088i3r","Qhr3A5jDGJRuffj2q2FmqVcIOj",101593,14,FALSE,"number_series_test_trial",29659,"NS_3","64","64",1
"0Q3B6QXM9FjB9K71ctmP088i3r","Qhr3A5jDGJRuffj2q2FmqVcIOj",113122,15,FALSE,"number_series_test_trial",11501,"NS_4","29","29",1
"0Q3B6QXM9FjB9K71ctmP088i3r","Qhr3A5jDGJRuffj2q2FmqVcIOj",144183,16,TRUE,"number_series_test_trial",31047,"NS_5","8","8/16",0
"0Q3B6QXM9FjB9K71ctmP088i3r","Qhr3A5jDGJRuffj2q2FmqVcIOj",175236,17,TRUE,"number_series_test_trial",31040,"NS_6","1","165",0
"0Q3B6QXM9FjB9K71ctmP088i3r","Qhr3A5jDGJRuffj2q2FmqVcIOj",181681,18,FALSE,"number_series_test_trial",6433,"NS_7","160","43",0
"0Q3B6QXM9FjB9K71ctmP088i3r","Qhr3A5jDGJRuffj2q2FmqVcIOj",211998,19,FALSE,"number_series_test_trial",30306,"NS_8","8895","8900",0
"0Q3B6QXM9FjB9K71ctmP088i3r","Qhr3A5jDGJRuffj2q2FmqVcIOj",231882,20,FALSE,"number_series_test_trial",19863,"NS_9","12/16","12/16",1
"0Qe0NO7DVDiFBjxwEPx3EWpX8x","9vDTobZqpa7cyq4e685ZdjSRr2",2365609,680,FALSE,"number_series_test_trial",18756,"NS_1","14","-2",0
"0Qe0NO7DVDiFBjxwEPx3EWpX8x","9vDTobZqpa7cyq4e685ZdjSRr2",2383768,681,FALSE,"number_series_test_trial",18155,"NS_2","28","28",1
"0Qe0NO7DVDiFBjxwEPx3EWpX8x","9vDTobZqpa7cyq4e685ZdjSRr2",2414771,682,TRUE,"number_series_test_trial",31000,"NS_3","69","64",0
"0Qe0NO7DVDiFBjxwEPx3EWpX8x","9vDTobZqpa7cyq4e685ZdjSRr2",2432175,683,FALSE,"number_series_test_trial",17400,"NS_4","17","29",0
"0Qe0NO7DVDiFBjxwEPx3EWpX8x","9vDTobZqpa7cyq4e685ZdjSRr2",2463179,684,TRUE,"number_series_test_trial",31000,"NS_5",NA,"8/16",NA
"0Qe0NO7DVDiFBjxwEPx3EWpX8x","9vDTobZqpa7cyq4e685ZdjSRr2",2487440,685,FALSE,"number_series_test_trial",24256,"NS_6","156","165",0
"0Qe0NO7DVDiFBjxwEPx3EWpX8x","9vDTobZqpa7cyq4e685ZdjSRr2",2517735,686,FALSE,"number_series_test_trial",30292,"NS_7","5","43",0
"0Qe0NO7DVDiFBjxwEPx3EWpX8x","9vDTobZqpa7cyq4e685ZdjSRr2",2535503,687,FALSE,"number_series_test_trial",17766,"NS_8","8899","8900",0
"0Qe0NO7DVDiFBjxwEPx3EWpX8x","9vDTobZqpa7cyq4e685ZdjSRr2",2557264,688,FALSE,"number_series_test_trial",21758,"NS_9","12/14","12/16",0
"0r6s9iLCLLkfi2hIZx5Vsdz5Og","TtpuFQNyiwdqdQe5yWkCQRWUhE",3288073,718,FALSE,"number_series_test_trial",9534,"NS_1","-2","-2",1
"0r6s9iLCLLkfi2hIZx5Vsdz5Og","TtpuFQNyiwdqdQe5yWkCQRWUhE",3301249,719,FALSE,"number_series_test_trial",13168,"NS_2","28","28",1
"0r6s9iLCLLkfi2hIZx5Vsdz5Og","TtpuFQNyiwdqdQe5yWkCQRWUhE",3332262,720,TRUE,"number_series_test_trial",31003,"NS_3","63","64",0
"0r6s9iLCLLkfi2hIZx5Vsdz5Og","TtpuFQNyiwdqdQe5yWkCQRWUhE",3363274,721,TRUE,"number_series_test_trial",30988,"NS_4","27","29",0
"0r6s9iLCLLkfi2hIZx5Vsdz5Og","TtpuFQNyiwdqdQe5yWkCQRWUhE",3390491,722,FALSE,"number_series_test_trial",27193,"NS_5","8/16","8/16",1
"0r6s9iLCLLkfi2hIZx5Vsdz5Og","TtpuFQNyiwdqdQe5yWkCQRWUhE",3421509,723,TRUE,"number_series_test_trial",30989,"NS_6",NA,"165",NA
"0r6s9iLCLLkfi2hIZx5Vsdz5Og","TtpuFQNyiwdqdQe5yWkCQRWUhE",3446949,724,FALSE,"number_series_test_trial",25418,"NS_7","43","43",1
"0r6s9iLCLLkfi2hIZx5Vsdz5Og","TtpuFQNyiwdqdQe5yWkCQRWUhE",3462257,725,FALSE,"number_series_test_trial",15300,"NS_8","8900","8900",1
"0r6s9iLCLLkfi2hIZx5Vsdz5Og","TtpuFQNyiwdqdQe5yWkCQRWUhE",3493262,726,TRUE,"number_series_test_trial",30999,"NS_9","10","12/16",0
"0rkdaOab6xHfN7wjdrqwof6SEZ","18GjupZLVDr6587OqOPAqa1lvA",1989351,528,FALSE,"number_series_test_trial",7771,"NS_1","-2","-2",1
"0rkdaOab6xHfN7wjdrqwof6SEZ","18GjupZLVDr6587OqOPAqa1lvA",2003139,529,FALSE,"number_series_test_trial",13776,"NS_2","28","28",1
"0rkdaOab6xHfN7wjdrqwof6SEZ","18GjupZLVDr6587OqOPAqa1lvA",2034166,530,TRUE,"number_series_test_trial",31000,"NS_3","6","64",0
"0rkdaOab6xHfN7wjdrqwof6SEZ","18GjupZLVDr6587OqOPAqa1lvA",2065182,531,TRUE,"number_series_test_trial",30994,"NS_4","29","29",1
"0rkdaOab6xHfN7wjdrqwof6SEZ","18GjupZLVDr6587OqOPAqa1lvA",2096200,532,TRUE,"number_series_test_trial",30996,"NS_5",NA,"8/16",NA
"0rkdaOab6xHfN7wjdrqwof6SEZ","18GjupZLVDr6587OqOPAqa1lvA",2123480,533,FALSE,"number_series_test_trial",27253,"NS_6","120","165",0
"0rkdaOab6xHfN7wjdrqwof6SEZ","18GjupZLVDr6587OqOPAqa1lvA",2154488,534,TRUE,"number_series_test_trial",30986,"NS_7",NA,"43",NA
"0rkdaOab6xHfN7wjdrqwof6SEZ","18GjupZLVDr6587OqOPAqa1lvA",2185508,535,TRUE,"number_series_test_trial",30985,"NS_8","8900","8900",1
"0rkdaOab6xHfN7wjdrqwof6SEZ","18GjupZLVDr6587OqOPAqa1lvA",2216516,536,TRUE,"number_series_test_trial",30982,"NS_9","12/16","12/16",1
"0ry0GXGC6ZGkE23J4k14skcsHW","hYTM6byvgdtCFWjXgoqJCy4U6k",2422921,711,FALSE,"number_series_test_trial",19331,"NS_1","-2","-2",1
"0ry0GXGC6ZGkE23J4k14skcsHW","hYTM6byvgdtCFWjXgoqJCy4U6k",2453939,712,TRUE,"number_series_test_trial",31015,"NS_2",NA,"28",NA
"0ry0GXGC6ZGkE23J4k14skcsHW","hYTM6byvgdtCFWjXgoqJCy4U6k",2484957,713,TRUE,"number_series_test_trial",31014,"NS_3","67","64",0
"0ry0GXGC6ZGkE23J4k14skcsHW","hYTM6byvgdtCFWjXgoqJCy4U6k",2514250,714,FALSE,"number_series_test_trial",29285,"NS_4","29","29",1
"0ry0GXGC6ZGkE23J4k14skcsHW","hYTM6byvgdtCFWjXgoqJCy4U6k",2545269,715,TRUE,"number_series_test_trial",31013,"NS_5","15","8/16",0
"0ry0GXGC6ZGkE23J4k14skcsHW","hYTM6byvgdtCFWjXgoqJCy4U6k",2576288,716,TRUE,"number_series_test_trial",31013,"NS_6","156","165",0
"0ry0GXGC6ZGkE23J4k14skcsHW","hYTM6byvgdtCFWjXgoqJCy4U6k",2607308,717,TRUE,"number_series_test_trial",31013,"NS_7","43","43",1
"0ry0GXGC6ZGkE23J4k14skcsHW","hYTM6byvgdtCFWjXgoqJCy4U6k",2638328,718,TRUE,"number_series_test_trial",31013,"NS_8","8850","8900",0
"0ry0GXGC6ZGkE23J4k14skcsHW","hYTM6byvgdtCFWjXgoqJCy4U6k",2669347,719,TRUE,"number_series_test_trial",31011,"NS_9","12/15","12/16",0
"0TFBuVyddzHaLR4Z1OBZ8OLdLZ","arqcoRW6M0LBrIZBxv7FETag35",75937,13,FALSE,"number_series_test_trial",20263,"NS_1","-2","-2",1
"0TFBuVyddzHaLR4Z1OBZ8OLdLZ","arqcoRW6M0LBrIZBxv7FETag35",93104,14,FALSE,"number_series_test_trial",17153,"NS_2","28","28",1
"0TFBuVyddzHaLR4Z1OBZ8OLdLZ","arqcoRW6M0LBrIZBxv7FETag35",104196,15,FALSE,"number_series_test_trial",11078,"NS_3","64","64",1
"0TFBuVyddzHaLR4Z1OBZ8OLdLZ","arqcoRW6M0LBrIZBxv7FETag35",135223,16,TRUE,"number_series_test_trial",30995,"NS_4","31","29",0
"0TFBuVyddzHaLR4Z1OBZ8OLdLZ","arqcoRW6M0LBrIZBxv7FETag35",166253,17,TRUE,"number_series_test_trial",31001,"NS_5",NA,"8/16",NA
"0TFBuVyddzHaLR4Z1OBZ8OLdLZ","arqcoRW6M0LBrIZBxv7FETag35",197274,18,TRUE,"number_series_test_trial",30995,"NS_6","152","165",0
"0TFBuVyddzHaLR4Z1OBZ8OLdLZ","arqcoRW6M0LBrIZBxv7FETag35",228297,19,TRUE,"number_series_test_trial",31003,"NS_7",NA,"43",NA
"0TFBuVyddzHaLR4Z1OBZ8OLdLZ","arqcoRW6M0LBrIZBxv7FETag35",254271,20,FALSE,"number_series_test_trial",25954,"NS_8","8900","8900",1
"0TFBuVyddzHaLR4Z1OBZ8OLdLZ","arqcoRW6M0LBrIZBxv7FETag35",285289,21,TRUE,"number_series_test_trial",31005,"NS_9",NA,"12/16",NA
"0TUU6KNqzeBrYHXqkJwawgPCqY","fLupaNFla9T582NFaTTYvxtrEv",3953030,929,FALSE,"number_series_test_trial",27214,"NS_1","-22","-2",0
"0TUU6KNqzeBrYHXqkJwawgPCqY","fLupaNFla9T582NFaTTYvxtrEv",3965775,930,FALSE,"number_series_test_trial",12743,"NS_2","28","28",1
"0TUU6KNqzeBrYHXqkJwawgPCqY","fLupaNFla9T582NFaTTYvxtrEv",3984992,931,FALSE,"number_series_test_trial",19213,"NS_3","50","64",0
"0TUU6KNqzeBrYHXqkJwawgPCqY","fLupaNFla9T582NFaTTYvxtrEv",4015390,932,FALSE,"number_series_test_trial",30395,"NS_4","30","29",0
"0TUU6KNqzeBrYHXqkJwawgPCqY","fLupaNFla9T582NFaTTYvxtrEv",4046393,933,TRUE,"number_series_test_trial",31001,"NS_5","1/-21","8/16",0
"0TUU6KNqzeBrYHXqkJwawgPCqY","fLupaNFla9T582NFaTTYvxtrEv",4072544,934,FALSE,"number_series_test_trial",26148,"NS_6","22","165",0
"0TUU6KNqzeBrYHXqkJwawgPCqY","fLupaNFla9T582NFaTTYvxtrEv",4093734,935,FALSE,"number_series_test_trial",21187,"NS_7","31","43",0
"0TUU6KNqzeBrYHXqkJwawgPCqY","fLupaNFla9T582NFaTTYvxtrEv",4112563,936,FALSE,"number_series_test_trial",18826,"NS_8","9499","8900",0
"0TUU6KNqzeBrYHXqkJwawgPCqY","fLupaNFla9T582NFaTTYvxtrEv",4122663,937,FALSE,"number_series_test_trial",10098,"NS_9","10/16","12/16",0
"0WHg8qcj7I94A3oUQSPaqVanYX","UwuG2YHuAfkpCCas9ItpcwoY2p",1582093,1034,FALSE,"number_series_test_trial",15048,"NS_1","-2","-2",1
"0WHg8qcj7I94A3oUQSPaqVanYX","UwuG2YHuAfkpCCas9ItpcwoY2p",1600197,1035,FALSE,"number_series_test_trial",18101,"NS_2","27","28",0
"0WHg8qcj7I94A3oUQSPaqVanYX","UwuG2YHuAfkpCCas9ItpcwoY2p",1627588,1036,FALSE,"number_series_test_trial",27389,"NS_3","62","64",0
"0WHg8qcj7I94A3oUQSPaqVanYX","UwuG2YHuAfkpCCas9ItpcwoY2p",1656568,1037,FALSE,"number_series_test_trial",28978,"NS_4","29","29",1
"0WHg8qcj7I94A3oUQSPaqVanYX","UwuG2YHuAfkpCCas9ItpcwoY2p",1687574,1038,TRUE,"number_series_test_trial",31003,"NS_5",NA,"8/16",NA
"0WHg8qcj7I94A3oUQSPaqVanYX","UwuG2YHuAfkpCCas9ItpcwoY2p",1706716,1039,FALSE,"number_series_test_trial",19140,"NS_6","161","165",0
"0WHg8qcj7I94A3oUQSPaqVanYX","UwuG2YHuAfkpCCas9ItpcwoY2p",1737718,1040,TRUE,"number_series_test_trial",31000,"NS_7",NA,"43",NA
"0WHg8qcj7I94A3oUQSPaqVanYX","UwuG2YHuAfkpCCas9ItpcwoY2p",1758803,1041,FALSE,"number_series_test_trial",21082,"NS_8","8900","8900",1
"0WHg8qcj7I94A3oUQSPaqVanYX","UwuG2YHuAfkpCCas9ItpcwoY2p",1781136,1042,FALSE,"number_series_test_trial",22331,"NS_9","12/16","12/16",1
"10GbaHu243wpAgm4YLuLyNWbLV","YbBQx8vpNLVmgwJs3ep05cqmnb",1361449,625,FALSE,"number_series_test_trial",17036,"NS_1","-2","-2",1
"10GbaHu243wpAgm4YLuLyNWbLV","YbBQx8vpNLVmgwJs3ep05cqmnb",1371400,626,FALSE,"number_series_test_trial",9950,"NS_2","28","28",1
"10GbaHu243wpAgm4YLuLyNWbLV","YbBQx8vpNLVmgwJs3ep05cqmnb",1397328,627,FALSE,"number_series_test_trial",25925,"NS_3","17","64",0
"10GbaHu243wpAgm4YLuLyNWbLV","YbBQx8vpNLVmgwJs3ep05cqmnb",1414992,628,FALSE,"number_series_test_trial",17662,"NS_4","27","29",0
"10GbaHu243wpAgm4YLuLyNWbLV","YbBQx8vpNLVmgwJs3ep05cqmnb",1445997,629,TRUE,"number_series_test_trial",31002,"NS_5","1/","8/16",0
"10GbaHu243wpAgm4YLuLyNWbLV","YbBQx8vpNLVmgwJs3ep05cqmnb",1469137,630,FALSE,"number_series_test_trial",23136,"NS_6","163","165",0
"10GbaHu243wpAgm4YLuLyNWbLV","YbBQx8vpNLVmgwJs3ep05cqmnb",1500140,631,TRUE,"number_series_test_trial",31000,"NS_7","10","43",0
"10GbaHu243wpAgm4YLuLyNWbLV","YbBQx8vpNLVmgwJs3ep05cqmnb",1521345,632,FALSE,"number_series_test_trial",21200,"NS_8","8990","8900",0
"10GbaHu243wpAgm4YLuLyNWbLV","YbBQx8vpNLVmgwJs3ep05cqmnb",1533856,633,FALSE,"number_series_test_trial",12509,"NS_9","12/24","12/16",0
"12oh6FlSP6CWj4rowY8XpVi9ty","qB0pvEMcKBgzS8taCtjYLyZg8F",1025883,168,FALSE,"number_series_test_trial",18554,"NS_1","-2","-2",1
"12oh6FlSP6CWj4rowY8XpVi9ty","qB0pvEMcKBgzS8taCtjYLyZg8F",1032681,169,FALSE,"number_series_test_trial",6794,"NS_2","28","28",1
"12oh6FlSP6CWj4rowY8XpVi9ty","qB0pvEMcKBgzS8taCtjYLyZg8F",1043086,170,FALSE,"number_series_test_trial",10403,"NS_3","64","64",1
"12oh6FlSP6CWj4rowY8XpVi9ty","qB0pvEMcKBgzS8taCtjYLyZg8F",1074827,171,TRUE,"number_series_test_trial",31739,"NS_4",NA,"29",NA
"12oh6FlSP6CWj4rowY8XpVi9ty","qB0pvEMcKBgzS8taCtjYLyZg8F",1106953,172,TRUE,"number_series_test_trial",32120,"NS_5","30","8/16",0
"12oh6FlSP6CWj4rowY8XpVi9ty","qB0pvEMcKBgzS8taCtjYLyZg8F",1120223,173,FALSE,"number_series_test_trial",13265,"NS_6","164","165",0
"12oh6FlSP6CWj4rowY8XpVi9ty","qB0pvEMcKBgzS8taCtjYLyZg8F",1145542,174,FALSE,"number_series_test_trial",25316,"NS_7","24","43",0
"12oh6FlSP6CWj4rowY8XpVi9ty","qB0pvEMcKBgzS8taCtjYLyZg8F",1171142,175,FALSE,"number_series_test_trial",25598,"NS_8","8999","8900",0
"12oh6FlSP6CWj4rowY8XpVi9ty","qB0pvEMcKBgzS8taCtjYLyZg8F",1202864,176,TRUE,"number_series_test_trial",31719,"NS_9",NA,"12/16",NA
"150M9Gh86Ey9SqRsx0UPPggMkN","9I3aXs2csNmZdwthrGzoMigv2t",3010803,329,FALSE,"number_series_test_trial",12201,"NS_1","-2","-2",1
"150M9Gh86Ey9SqRsx0UPPggMkN","9I3aXs2csNmZdwthrGzoMigv2t",3020419,330,FALSE,"number_series_test_trial",9613,"NS_2","28","28",1
"150M9Gh86Ey9SqRsx0UPPggMkN","9I3aXs2csNmZdwthrGzoMigv2t",3051422,331,TRUE,"number_series_test_trial",31001,"NS_3",NA,"64",NA
"150M9Gh86Ey9SqRsx0UPPggMkN","9I3aXs2csNmZdwthrGzoMigv2t",3067885,332,FALSE,"number_series_test_trial",16461,"NS_4","29","29",1
"150M9Gh86Ey9SqRsx0UPPggMkN","9I3aXs2csNmZdwthrGzoMigv2t",3098887,333,TRUE,"number_series_test_trial",31000,"NS_5",NA,"8/16",NA
"150M9Gh86Ey9SqRsx0UPPggMkN","9I3aXs2csNmZdwthrGzoMigv2t",3129890,334,TRUE,"number_series_test_trial",31001,"NS_6",NA,"165",NA
"150M9Gh86Ey9SqRsx0UPPggMkN","9I3aXs2csNmZdwthrGzoMigv2t",3160892,335,TRUE,"number_series_test_trial",31000,"NS_7",NA,"43",NA
"150M9Gh86Ey9SqRsx0UPPggMkN","9I3aXs2csNmZdwthrGzoMigv2t",3186815,336,FALSE,"number_series_test_trial",25921,"NS_8","8900","8900",1
"150M9Gh86Ey9SqRsx0UPPggMkN","9I3aXs2csNmZdwthrGzoMigv2t",3217818,337,TRUE,"number_series_test_trial",31000,"NS_9",NA,"12/16",NA
"1aGQbwe2Q2beIWN1PTKfae5IG2","YAgojl9qpJ2VybrR5AKg2KsG9A",1670096,469,FALSE,"number_series_test_trial",9418,"NS_1","-2","-2",1
"1aGQbwe2Q2beIWN1PTKfae5IG2","YAgojl9qpJ2VybrR5AKg2KsG9A",1677845,470,FALSE,"number_series_test_trial",7745,"NS_2","28","28",1
"1aGQbwe2Q2beIWN1PTKfae5IG2","YAgojl9qpJ2VybrR5AKg2KsG9A",1685944,471,FALSE,"number_series_test_trial",8096,"NS_3","64","64",1
"1aGQbwe2Q2beIWN1PTKfae5IG2","YAgojl9qpJ2VybrR5AKg2KsG9A",1706441,472,FALSE,"number_series_test_trial",20493,"NS_4","29","29",1
"1aGQbwe2Q2beIWN1PTKfae5IG2","YAgojl9qpJ2VybrR5AKg2KsG9A",1730490,473,FALSE,"number_series_test_trial",24045,"NS_5","8/16","8/16",1
"1aGQbwe2Q2beIWN1PTKfae5IG2","YAgojl9qpJ2VybrR5AKg2KsG9A",1758702,474,FALSE,"number_series_test_trial",28207,"NS_6","150","165",0
"1aGQbwe2Q2beIWN1PTKfae5IG2","YAgojl9qpJ2VybrR5AKg2KsG9A",1790113,475,TRUE,"number_series_test_trial",31403,"NS_7",NA,"43",NA
"1aGQbwe2Q2beIWN1PTKfae5IG2","YAgojl9qpJ2VybrR5AKg2KsG9A",1813741,476,FALSE,"number_series_test_trial",23623,"NS_8","8990","8900",0
"1aGQbwe2Q2beIWN1PTKfae5IG2","YAgojl9qpJ2VybrR5AKg2KsG9A",1824367,477,FALSE,"number_series_test_trial",10620,"NS_9","10/16","12/16",0
"1ALZ5uOIs5F8RvGZ3xmesJFtWC","GhXrxhjArMLMWLMHh6ue8V7dtx",368007237,1284,FALSE,"number_series_test_trial",13203,"NS_1","-2","-2",1
"1ALZ5uOIs5F8RvGZ3xmesJFtWC","GhXrxhjArMLMWLMHh6ue8V7dtx",368023835,1285,FALSE,"number_series_test_trial",16596,"NS_2","28","28",1
"1ALZ5uOIs5F8RvGZ3xmesJFtWC","GhXrxhjArMLMWLMHh6ue8V7dtx",368039314,1286,FALSE,"number_series_test_trial",15476,"NS_3","64","64",1
"1ALZ5uOIs5F8RvGZ3xmesJFtWC","GhXrxhjArMLMWLMHh6ue8V7dtx",368070564,1287,TRUE,"number_series_test_trial",31247,"NS_4",NA,"29",NA
"1ALZ5uOIs5F8RvGZ3xmesJFtWC","GhXrxhjArMLMWLMHh6ue8V7dtx",368101806,1288,TRUE,"number_series_test_trial",31238,"NS_5",NA,"8/16",NA
"1ALZ5uOIs5F8RvGZ3xmesJFtWC","GhXrxhjArMLMWLMHh6ue8V7dtx",368120629,1289,FALSE,"number_series_test_trial",18821,"NS_6","142","165",0
"1ALZ5uOIs5F8RvGZ3xmesJFtWC","GhXrxhjArMLMWLMHh6ue8V7dtx",368145750,1290,FALSE,"number_series_test_trial",25118,"NS_7","45","43",0
"1ALZ5uOIs5F8RvGZ3xmesJFtWC","GhXrxhjArMLMWLMHh6ue8V7dtx",368166518,1291,FALSE,"number_series_test_trial",20766,"NS_8","8900","8900",1
"1ALZ5uOIs5F8RvGZ3xmesJFtWC","GhXrxhjArMLMWLMHh6ue8V7dtx",368187454,1292,FALSE,"number_series_test_trial",20934,"NS_9","16/64","12/16",0
"1eaHN8Pl6BP2COQOcd9WXMKoSj","pvN4j4OxoryztM0vIWr9G5tevE",782741,67,FALSE,"number_series_test_trial",24917,"NS_1","-2","-2",1
"1eaHN8Pl6BP2COQOcd9WXMKoSj","pvN4j4OxoryztM0vIWr9G5tevE",792702,68,FALSE,"number_series_test_trial",9959,"NS_2","28","28",1
"1eaHN8Pl6BP2COQOcd9WXMKoSj","pvN4j4OxoryztM0vIWr9G5tevE",823708,69,TRUE,"number_series_test_trial",31004,"NS_3",NA,"64",NA
"1eaHN8Pl6BP2COQOcd9WXMKoSj","pvN4j4OxoryztM0vIWr9G5tevE",842253,70,FALSE,"number_series_test_trial",18538,"NS_4","29","29",1
"1eaHN8Pl6BP2COQOcd9WXMKoSj","pvN4j4OxoryztM0vIWr9G5tevE",873259,71,TRUE,"number_series_test_trial",31002,"NS_5","8/","8/16",0
"1eaHN8Pl6BP2COQOcd9WXMKoSj","pvN4j4OxoryztM0vIWr9G5tevE",883361,72,FALSE,"number_series_test_trial",10094,"NS_6","164","165",0
"1eaHN8Pl6BP2COQOcd9WXMKoSj","pvN4j4OxoryztM0vIWr9G5tevE",914364,73,TRUE,"number_series_test_trial",31001,"NS_7",NA,"43",NA
"1eaHN8Pl6BP2COQOcd9WXMKoSj","pvN4j4OxoryztM0vIWr9G5tevE",937351,74,FALSE,"number_series_test_trial",22981,"NS_8","8899","8900",0
"1eaHN8Pl6BP2COQOcd9WXMKoSj","pvN4j4OxoryztM0vIWr9G5tevE",963963,75,FALSE,"number_series_test_trial",26610,"NS_9","10/14","12/16",0
"1eOPl7SvGPvdQ1oAH8RH5igpCM","AzzyIdA0bWIzIGXvHPZNwvQQqJ",43543,12,FALSE,"number_series_test_trial",10367,"NS_1","-2","-2",1
"1eOPl7SvGPvdQ1oAH8RH5igpCM","AzzyIdA0bWIzIGXvHPZNwvQQqJ",52895,13,FALSE,"number_series_test_trial",9348,"NS_2","28","28",1
"1eOPl7SvGPvdQ1oAH8RH5igpCM","AzzyIdA0bWIzIGXvHPZNwvQQqJ",61935,14,FALSE,"number_series_test_trial",9037,"NS_3","64","64",1
"1eOPl7SvGPvdQ1oAH8RH5igpCM","AzzyIdA0bWIzIGXvHPZNwvQQqJ",85342,15,FALSE,"number_series_test_trial",23405,"NS_4","29","29",1
"1eOPl7SvGPvdQ1oAH8RH5igpCM","AzzyIdA0bWIzIGXvHPZNwvQQqJ",116346,16,TRUE,"number_series_test_trial",31001,"NS_5",NA,"8/16",NA
"1eOPl7SvGPvdQ1oAH8RH5igpCM","AzzyIdA0bWIzIGXvHPZNwvQQqJ",147349,17,TRUE,"number_series_test_trial",30999,"NS_6",NA,"165",NA
"1eOPl7SvGPvdQ1oAH8RH5igpCM","AzzyIdA0bWIzIGXvHPZNwvQQqJ",173350,18,FALSE,"number_series_test_trial",25995,"NS_7","21","43",0
"1eOPl7SvGPvdQ1oAH8RH5igpCM","AzzyIdA0bWIzIGXvHPZNwvQQqJ",191382,19,FALSE,"number_series_test_trial",18028,"NS_8","8900","8900",1
"1eOPl7SvGPvdQ1oAH8RH5igpCM","AzzyIdA0bWIzIGXvHPZNwvQQqJ",211694,20,FALSE,"number_series_test_trial",20309,"NS_9","12/16","12/16",1
"1GzcKqUhkoccdTdKcWOwKBiZly","WnaCiktbnd9gusuzL5Do9r76Gj",1841966,160,FALSE,"number_series_test_trial",19058,"NS_1","-2","-2",1
"1GzcKqUhkoccdTdKcWOwKBiZly","WnaCiktbnd9gusuzL5Do9r76Gj",1854373,161,FALSE,"number_series_test_trial",12404,"NS_2","28","28",1
"1GzcKqUhkoccdTdKcWOwKBiZly","WnaCiktbnd9gusuzL5Do9r76Gj",1876106,162,FALSE,"number_series_test_trial",21730,"NS_3","64","64",1
"1GzcKqUhkoccdTdKcWOwKBiZly","WnaCiktbnd9gusuzL5Do9r76Gj",1904912,163,FALSE,"number_series_test_trial",28802,"NS_4","30","29",0
"1GzcKqUhkoccdTdKcWOwKBiZly","WnaCiktbnd9gusuzL5Do9r76Gj",1935916,164,TRUE,"number_series_test_trial",31002,"NS_5","8/","8/16",0
"1GzcKqUhkoccdTdKcWOwKBiZly","WnaCiktbnd9gusuzL5Do9r76Gj",1964574,165,FALSE,"number_series_test_trial",28655,"NS_6","160","165",0
"1GzcKqUhkoccdTdKcWOwKBiZly","WnaCiktbnd9gusuzL5Do9r76Gj",1990971,166,FALSE,"number_series_test_trial",26394,"NS_7","40","43",0
"1GzcKqUhkoccdTdKcWOwKBiZly","WnaCiktbnd9gusuzL5Do9r76Gj",2020162,167,FALSE,"number_series_test_trial",29188,"NS_8","8891","8900",0
"1GzcKqUhkoccdTdKcWOwKBiZly","WnaCiktbnd9gusuzL5Do9r76Gj",2035933,168,FALSE,"number_series_test_trial",15770,"NS_9","10/14","12/16",0
"1hz1kVjqIX5xpI8NmyGlNEYmUB","Cyt76GkcZNixw2TXXPdf7WgThY",2885439,620,FALSE,"number_series_test_trial",16814,"NS_1","-2","-2",1
"1hz1kVjqIX5xpI8NmyGlNEYmUB","Cyt76GkcZNixw2TXXPdf7WgThY",2915877,621,FALSE,"number_series_test_trial",30436,"NS_2","28","28",1
"1hz1kVjqIX5xpI8NmyGlNEYmUB","Cyt76GkcZNixw2TXXPdf7WgThY",2945252,622,FALSE,"number_series_test_trial",29372,"NS_3","62","64",0
"1hz1kVjqIX5xpI8NmyGlNEYmUB","Cyt76GkcZNixw2TXXPdf7WgThY",2976706,623,TRUE,"number_series_test_trial",31454,"NS_4",NA,"29",NA
"1hz1kVjqIX5xpI8NmyGlNEYmUB","Cyt76GkcZNixw2TXXPdf7WgThY",3006581,624,FALSE,"number_series_test_trial",29872,"NS_5","1/5","8/16",0
"1hz1kVjqIX5xpI8NmyGlNEYmUB","Cyt76GkcZNixw2TXXPdf7WgThY",3038357,625,TRUE,"number_series_test_trial",31774,"NS_6",NA,"165",NA
"1hz1kVjqIX5xpI8NmyGlNEYmUB","Cyt76GkcZNixw2TXXPdf7WgThY",3040737,626,FALSE,"number_series_test_trial",2379,"NS_7","140","43",0
"1hz1kVjqIX5xpI8NmyGlNEYmUB","Cyt76GkcZNixw2TXXPdf7WgThY",3067932,627,FALSE,"number_series_test_trial",27193,"NS_8","8900","8900",1
"1hz1kVjqIX5xpI8NmyGlNEYmUB","Cyt76GkcZNixw2TXXPdf7WgThY",3096759,628,FALSE,"number_series_test_trial",28825,"NS_9","12/16","12/16",1
"1ILqAdEwHzFzo7m8TqJW9kesyb","Ij4hUVk090Odu2MTvcXAbOv3ix",81861526,608,FALSE,"number_series_test_trial",15819,"NS_1","-2","-2",1
"1ILqAdEwHzFzo7m8TqJW9kesyb","Ij4hUVk090Odu2MTvcXAbOv3ix",81878359,609,FALSE,"number_series_test_trial",16826,"NS_2","28","28",1
"1ILqAdEwHzFzo7m8TqJW9kesyb","Ij4hUVk090Odu2MTvcXAbOv3ix",81896799,610,FALSE,"number_series_test_trial",18435,"NS_3","60","64",0
"1ILqAdEwHzFzo7m8TqJW9kesyb","Ij4hUVk090Odu2MTvcXAbOv3ix",81921088,611,FALSE,"number_series_test_trial",24286,"NS_4","27","29",0
"1ILqAdEwHzFzo7m8TqJW9kesyb","Ij4hUVk090Odu2MTvcXAbOv3ix",81952100,612,TRUE,"number_series_test_trial",31007,"NS_5",NA,"8/16",NA
"1ILqAdEwHzFzo7m8TqJW9kesyb","Ij4hUVk090Odu2MTvcXAbOv3ix",81978794,613,FALSE,"number_series_test_trial",26691,"NS_6","166","165",0
"1ILqAdEwHzFzo7m8TqJW9kesyb","Ij4hUVk090Odu2MTvcXAbOv3ix",82009802,614,TRUE,"number_series_test_trial",31004,"NS_7",NA,"43",NA
"1ILqAdEwHzFzo7m8TqJW9kesyb","Ij4hUVk090Odu2MTvcXAbOv3ix",82026569,615,FALSE,"number_series_test_trial",16764,"NS_8","8000","8900",0
"1ILqAdEwHzFzo7m8TqJW9kesyb","Ij4hUVk090Odu2MTvcXAbOv3ix",82057582,616,TRUE,"number_series_test_trial",31009,"NS_9",NA,"12/16",NA
"1KoESoRPlfSTBYVri98fhC3YRW","iFkPmkji9r72Cv4aWmH0uCUWjn",2355913,124,FALSE,"number_series_test_trial",23982,"NS_1","-2","-2",1
"1KoESoRPlfSTBYVri98fhC3YRW","iFkPmkji9r72Cv4aWmH0uCUWjn",2375894,125,FALSE,"number_series_test_trial",19980,"NS_2","28","28",1
"1KoESoRPlfSTBYVri98fhC3YRW","iFkPmkji9r72Cv4aWmH0uCUWjn",2398729,126,FALSE,"number_series_test_trial",22834,"NS_3","60","64",0
"1KoESoRPlfSTBYVri98fhC3YRW","iFkPmkji9r72Cv4aWmH0uCUWjn",2426337,127,FALSE,"number_series_test_trial",27605,"NS_4","31","29",0
"1KoESoRPlfSTBYVri98fhC3YRW","iFkPmkji9r72Cv4aWmH0uCUWjn",2457340,128,TRUE,"number_series_test_trial",31002,"NS_5",NA,"8/16",NA
"1KoESoRPlfSTBYVri98fhC3YRW","iFkPmkji9r72Cv4aWmH0uCUWjn",2488343,129,TRUE,"number_series_test_trial",31001,"NS_6","140","165",0
"1KoESoRPlfSTBYVri98fhC3YRW","iFkPmkji9r72Cv4aWmH0uCUWjn",2516004,130,FALSE,"number_series_test_trial",27659,"NS_7","40","43",0
"1KoESoRPlfSTBYVri98fhC3YRW","iFkPmkji9r72Cv4aWmH0uCUWjn",2547005,131,TRUE,"number_series_test_trial",31000,"NS_8","899","8900",0
"1KoESoRPlfSTBYVri98fhC3YRW","iFkPmkji9r72Cv4aWmH0uCUWjn",2576288,132,FALSE,"number_series_test_trial",29281,"NS_9",NA,"12/16",NA
"1Pe9x9yqTZv1pgTsRNpo2zRQpC","H4RcvX0zdzcDRYBig9bu2MTndS",1263808,647,FALSE,"number_series_test_trial",17264,"NS_1","-4","-2",0
"1Pe9x9yqTZv1pgTsRNpo2zRQpC","H4RcvX0zdzcDRYBig9bu2MTndS",1273024,648,FALSE,"number_series_test_trial",9212,"NS_2","28","28",1
"1Pe9x9yqTZv1pgTsRNpo2zRQpC","H4RcvX0zdzcDRYBig9bu2MTndS",1299159,649,FALSE,"number_series_test_trial",26133,"NS_3","64","64",1
"1Pe9x9yqTZv1pgTsRNpo2zRQpC","H4RcvX0zdzcDRYBig9bu2MTndS",1323515,650,FALSE,"number_series_test_trial",24352,"NS_4","30","29",0
"1Pe9x9yqTZv1pgTsRNpo2zRQpC","H4RcvX0zdzcDRYBig9bu2MTndS",1350183,651,FALSE,"number_series_test_trial",26664,"NS_5","8/16","8/16",1
"1Pe9x9yqTZv1pgTsRNpo2zRQpC","H4RcvX0zdzcDRYBig9bu2MTndS",1381187,652,TRUE,"number_series_test_trial",31000,"NS_6","156","165",0
"1Pe9x9yqTZv1pgTsRNpo2zRQpC","H4RcvX0zdzcDRYBig9bu2MTndS",1403527,653,FALSE,"number_series_test_trial",22334,"NS_7","43","43",1
"1Pe9x9yqTZv1pgTsRNpo2zRQpC","H4RcvX0zdzcDRYBig9bu2MTndS",1434111,654,FALSE,"number_series_test_trial",30580,"NS_8","8950","8900",0
"1Pe9x9yqTZv1pgTsRNpo2zRQpC","H4RcvX0zdzcDRYBig9bu2MTndS",1465117,655,TRUE,"number_series_test_trial",31000,"NS_9","12/16","12/16",1
"1QXBE675rvNFx1h3UMWmN8YCK5","hQRtSy0WtRpBqsXtGBoSITtil4",1680859,964,FALSE,"number_series_test_trial",23930,"NS_1","6","-2",0
"1QXBE675rvNFx1h3UMWmN8YCK5","hQRtSy0WtRpBqsXtGBoSITtil4",1712111,965,TRUE,"number_series_test_trial",31245,"NS_2",NA,"28",NA
"1QXBE675rvNFx1h3UMWmN8YCK5","hQRtSy0WtRpBqsXtGBoSITtil4",1742786,966,FALSE,"number_series_test_trial",30650,"NS_3","64","64",1
"1QXBE675rvNFx1h3UMWmN8YCK5","hQRtSy0WtRpBqsXtGBoSITtil4",1768058,967,FALSE,"number_series_test_trial",25260,"NS_4","24","29",0
"1QXBE675rvNFx1h3UMWmN8YCK5","hQRtSy0WtRpBqsXtGBoSITtil4",1799377,968,TRUE,"number_series_test_trial",31311,"NS_5",NA,"8/16",NA
"1QXBE675rvNFx1h3UMWmN8YCK5","hQRtSy0WtRpBqsXtGBoSITtil4",1827011,969,FALSE,"number_series_test_trial",27626,"NS_6","156","165",0
"1QXBE675rvNFx1h3UMWmN8YCK5","hQRtSy0WtRpBqsXtGBoSITtil4",1858427,970,TRUE,"number_series_test_trial",31405,"NS_7","4","43",0
"1QXBE675rvNFx1h3UMWmN8YCK5","hQRtSy0WtRpBqsXtGBoSITtil4",1889933,971,TRUE,"number_series_test_trial",31471,"NS_8",NA,"8900",NA
"1QXBE675rvNFx1h3UMWmN8YCK5","hQRtSy0WtRpBqsXtGBoSITtil4",1915802,972,FALSE,"number_series_test_trial",25839,"NS_9","12/16","12/16",1
"1qXE7msJPud2zghs0WMBazegjc","TDJ9VEmNIzCwUBeMYYV3Ro39gR",4103767,860,FALSE,"number_series_test_trial",11853,"NS_1","20","-2",0
"1qXE7msJPud2zghs0WMBazegjc","TDJ9VEmNIzCwUBeMYYV3Ro39gR",4116989,861,FALSE,"number_series_test_trial",13211,"NS_2","26","28",0
"1qXE7msJPud2zghs0WMBazegjc","TDJ9VEmNIzCwUBeMYYV3Ro39gR",4139055,862,FALSE,"number_series_test_trial",22057,"NS_3","60","64",0
"1qXE7msJPud2zghs0WMBazegjc","TDJ9VEmNIzCwUBeMYYV3Ro39gR",4158982,863,FALSE,"number_series_test_trial",19917,"NS_4","29","29",1
"1qXE7msJPud2zghs0WMBazegjc","TDJ9VEmNIzCwUBeMYYV3Ro39gR",4189989,864,TRUE,"number_series_test_trial",31002,"NS_5",NA,"8/16",NA
"1qXE7msJPud2zghs0WMBazegjc","TDJ9VEmNIzCwUBeMYYV3Ro39gR",4220993,865,TRUE,"number_series_test_trial",30998,"NS_6","1","165",0
"1qXE7msJPud2zghs0WMBazegjc","TDJ9VEmNIzCwUBeMYYV3Ro39gR",4223050,866,FALSE,"number_series_test_trial",2047,"NS_7","68","43",0
"1qXE7msJPud2zghs0WMBazegjc","TDJ9VEmNIzCwUBeMYYV3Ro39gR",4243120,867,FALSE,"number_series_test_trial",20062,"NS_8","8000","8900",0
"1qXE7msJPud2zghs0WMBazegjc","TDJ9VEmNIzCwUBeMYYV3Ro39gR",4257857,868,FALSE,"number_series_test_trial",14726,"NS_9","16/24","12/16",0
"1VVvtTfxgSynTTEwaJcPf1u0gn","yrNqyzJBTp9Q7S8vfwA6gBcSpd",3295117,704,FALSE,"number_series_test_trial",10763,"NS_1","-2","-2",1
"1VVvtTfxgSynTTEwaJcPf1u0gn","yrNqyzJBTp9Q7S8vfwA6gBcSpd",3312354,705,FALSE,"number_series_test_trial",17229,"NS_2","28","28",1
"1VVvtTfxgSynTTEwaJcPf1u0gn","yrNqyzJBTp9Q7S8vfwA6gBcSpd",3343365,706,TRUE,"number_series_test_trial",31001,"NS_3",NA,"64",NA
"1VVvtTfxgSynTTEwaJcPf1u0gn","yrNqyzJBTp9Q7S8vfwA6gBcSpd",3364522,707,FALSE,"number_series_test_trial",21149,"NS_4","27","29",0
"1VVvtTfxgSynTTEwaJcPf1u0gn","yrNqyzJBTp9Q7S8vfwA6gBcSpd",3382453,708,FALSE,"number_series_test_trial",17919,"NS_5","8/16","8/16",1
"1VVvtTfxgSynTTEwaJcPf1u0gn","yrNqyzJBTp9Q7S8vfwA6gBcSpd",3412563,709,FALSE,"number_series_test_trial",30101,"NS_6","150","165",0
"1VVvtTfxgSynTTEwaJcPf1u0gn","yrNqyzJBTp9Q7S8vfwA6gBcSpd",3443572,710,TRUE,"number_series_test_trial",31000,"NS_7",NA,"43",NA
"1VVvtTfxgSynTTEwaJcPf1u0gn","yrNqyzJBTp9Q7S8vfwA6gBcSpd",3462668,711,FALSE,"number_series_test_trial",19088,"NS_8","8990","8900",0
"1VVvtTfxgSynTTEwaJcPf1u0gn","yrNqyzJBTp9Q7S8vfwA6gBcSpd",3492152,712,FALSE,"number_series_test_trial",29477,"NS_9","12/16","12/16",1
"1XXChrNBzIqhFB0g33oGeyYIy4","4iaAJzVJCocymQ6aPNl8NRwomM",3138648,297,FALSE,"number_series_test_trial",29924,"NS_1","2","-2",0
"1XXChrNBzIqhFB0g33oGeyYIy4","4iaAJzVJCocymQ6aPNl8NRwomM",3162615,298,FALSE,"number_series_test_trial",23952,"NS_2","27","28",0
"1XXChrNBzIqhFB0g33oGeyYIy4","4iaAJzVJCocymQ6aPNl8NRwomM",3176589,299,FALSE,"number_series_test_trial",13962,"NS_3","53","64",0
"1XXChrNBzIqhFB0g33oGeyYIy4","4iaAJzVJCocymQ6aPNl8NRwomM",3203404,300,FALSE,"number_series_test_trial",26803,"NS_4","20","29",0
"1XXChrNBzIqhFB0g33oGeyYIy4","4iaAJzVJCocymQ6aPNl8NRwomM",3234412,301,TRUE,"number_series_test_trial",30992,"NS_5","10/5","8/16",0
"1XXChrNBzIqhFB0g33oGeyYIy4","4iaAJzVJCocymQ6aPNl8NRwomM",3253924,302,FALSE,"number_series_test_trial",19501,"NS_6","165","165",1
"1XXChrNBzIqhFB0g33oGeyYIy4","4iaAJzVJCocymQ6aPNl8NRwomM",3271590,303,FALSE,"number_series_test_trial",17651,"NS_7","50","43",0
"1XXChrNBzIqhFB0g33oGeyYIy4","4iaAJzVJCocymQ6aPNl8NRwomM",3294303,304,FALSE,"number_series_test_trial",22699,"NS_8","8000","8900",0
"1XXChrNBzIqhFB0g33oGeyYIy4","4iaAJzVJCocymQ6aPNl8NRwomM",3308289,305,FALSE,"number_series_test_trial",13970,"NS_9","12/16","12/16",1
"1yI1shgZoSp9zuHnav8CB9I7zR","r4SgEMAHBuk6rKgMPuDJQgCFWg",577356,368,FALSE,"number_series_test_trial",22455,"NS_1","-2","-2",1
"1yI1shgZoSp9zuHnav8CB9I7zR","r4SgEMAHBuk6rKgMPuDJQgCFWg",594462,369,FALSE,"number_series_test_trial",17103,"NS_2","27","28",0
"1yI1shgZoSp9zuHnav8CB9I7zR","r4SgEMAHBuk6rKgMPuDJQgCFWg",625464,370,TRUE,"number_series_test_trial",31000,"NS_3","61","64",0
"1yI1shgZoSp9zuHnav8CB9I7zR","r4SgEMAHBuk6rKgMPuDJQgCFWg",643492,371,FALSE,"number_series_test_trial",18026,"NS_4","29","29",1
"1yI1shgZoSp9zuHnav8CB9I7zR","r4SgEMAHBuk6rKgMPuDJQgCFWg",672712,372,FALSE,"number_series_test_trial",29219,"NS_5","9/16","8/16",0
"1yI1shgZoSp9zuHnav8CB9I7zR","r4SgEMAHBuk6rKgMPuDJQgCFWg",703714,373,TRUE,"number_series_test_trial",31000,"NS_6",NA,"165",NA
"1yI1shgZoSp9zuHnav8CB9I7zR","r4SgEMAHBuk6rKgMPuDJQgCFWg",723831,374,FALSE,"number_series_test_trial",20115,"NS_7","10","43",0
"1yI1shgZoSp9zuHnav8CB9I7zR","r4SgEMAHBuk6rKgMPuDJQgCFWg",741120,375,FALSE,"number_series_test_trial",17287,"NS_8","8900","8900",1
"1yI1shgZoSp9zuHnav8CB9I7zR","r4SgEMAHBuk6rKgMPuDJQgCFWg",755998,376,FALSE,"number_series_test_trial",14875,"NS_9","10/14","12/16",0
"1Yl4QzSdVTD0JE1XZVhBNi10Zg","99gzYkZ22oA8GnfH9ybpcoXrsu",100119362,1308,TRUE,"number_series_test_trial",31497,"NS_1",NA,"-2",NA
"1Yl4QzSdVTD0JE1XZVhBNi10Zg","99gzYkZ22oA8GnfH9ybpcoXrsu",100150981,1309,TRUE,"number_series_test_trial",31609,"NS_2",NA,"28",NA
"1Yl4QzSdVTD0JE1XZVhBNi10Zg","99gzYkZ22oA8GnfH9ybpcoXrsu",100163566,1310,FALSE,"number_series_test_trial",12573,"NS_3","64","64",1
"1Yl4QzSdVTD0JE1XZVhBNi10Zg","99gzYkZ22oA8GnfH9ybpcoXrsu",100195076,1311,TRUE,"number_series_test_trial",31503,"NS_4",NA,"29",NA
"1Yl4QzSdVTD0JE1XZVhBNi10Zg","99gzYkZ22oA8GnfH9ybpcoXrsu",100226695,1312,TRUE,"number_series_test_trial",31609,"NS_5",NA,"8/16",NA
"1Yl4QzSdVTD0JE1XZVhBNi10Zg","99gzYkZ22oA8GnfH9ybpcoXrsu",100258313,1313,TRUE,"number_series_test_trial",31608,"NS_6",NA,"165",NA
"1Yl4QzSdVTD0JE1XZVhBNi10Zg","99gzYkZ22oA8GnfH9ybpcoXrsu",100289932,1314,TRUE,"number_series_test_trial",31609,"NS_7",NA,"43",NA
"1Yl4QzSdVTD0JE1XZVhBNi10Zg","99gzYkZ22oA8GnfH9ybpcoXrsu",100311035,1315,FALSE,"number_series_test_trial",21092,"NS_8","8900","8900",1
"1Yl4QzSdVTD0JE1XZVhBNi10Zg","99gzYkZ22oA8GnfH9ybpcoXrsu",100342550,1316,TRUE,"number_series_test_trial",31507,"NS_9",NA,"12/16",NA
"1ytoRyxVdfLL03kw6kCQ74p7bb","702cPaH3kqe0q2MaUrNtbBadXO",60182,17,FALSE,"number_series_test_trial",16592,"NS_1","-2","-2",1
"1ytoRyxVdfLL03kw6kCQ74p7bb","702cPaH3kqe0q2MaUrNtbBadXO",68978,18,FALSE,"number_series_test_trial",8794,"NS_2","28","28",1
"1ytoRyxVdfLL03kw6kCQ74p7bb","702cPaH3kqe0q2MaUrNtbBadXO",80788,19,FALSE,"number_series_test_trial",11809,"NS_3","64","64",1
"1ytoRyxVdfLL03kw6kCQ74p7bb","702cPaH3kqe0q2MaUrNtbBadXO",96992,20,FALSE,"number_series_test_trial",16203,"NS_4","29","29",1
"1ytoRyxVdfLL03kw6kCQ74p7bb","702cPaH3kqe0q2MaUrNtbBadXO",127948,21,FALSE,"number_series_test_trial",30954,"NS_5","8/16","8/16",1
"1ytoRyxVdfLL03kw6kCQ74p7bb","702cPaH3kqe0q2MaUrNtbBadXO",158951,22,TRUE,"number_series_test_trial",31002,"NS_6",NA,"165",NA
"1ytoRyxVdfLL03kw6kCQ74p7bb","702cPaH3kqe0q2MaUrNtbBadXO",181586,23,FALSE,"number_series_test_trial",22634,"NS_7","43","43",1
"1ytoRyxVdfLL03kw6kCQ74p7bb","702cPaH3kqe0q2MaUrNtbBadXO",195989,24,FALSE,"number_series_test_trial",14402,"NS_8","8900","8900",1
"1ytoRyxVdfLL03kw6kCQ74p7bb","702cPaH3kqe0q2MaUrNtbBadXO",225381,25,FALSE,"number_series_test_trial",29391,"NS_9","12/16","12/16",1
"229xyGIaKNEWS0oeiN7biPTDrB","vzphpVwNe8iraL63m3Kfw4gFUU",294240,26,FALSE,"number_series_test_trial",17587,"NS_1","-2","-2",1
"229xyGIaKNEWS0oeiN7biPTDrB","vzphpVwNe8iraL63m3Kfw4gFUU",322789,27,FALSE,"number_series_test_trial",28545,"NS_2","25","28",0
"229xyGIaKNEWS0oeiN7biPTDrB","vzphpVwNe8iraL63m3Kfw4gFUU",340091,28,FALSE,"number_series_test_trial",17298,"NS_3","64","64",1
"229xyGIaKNEWS0oeiN7biPTDrB","vzphpVwNe8iraL63m3Kfw4gFUU",370698,29,FALSE,"number_series_test_trial",30602,"NS_4","32","29",0
"229xyGIaKNEWS0oeiN7biPTDrB","vzphpVwNe8iraL63m3Kfw4gFUU",398231,30,FALSE,"number_series_test_trial",27529,"NS_5","5/7","8/16",0
"229xyGIaKNEWS0oeiN7biPTDrB","vzphpVwNe8iraL63m3Kfw4gFUU",429235,31,TRUE,"number_series_test_trial",31000,"NS_6","156","165",0
"229xyGIaKNEWS0oeiN7biPTDrB","vzphpVwNe8iraL63m3Kfw4gFUU",460241,32,TRUE,"number_series_test_trial",31001,"NS_7","34","43",0
"229xyGIaKNEWS0oeiN7biPTDrB","vzphpVwNe8iraL63m3Kfw4gFUU",491247,33,TRUE,"number_series_test_trial",31001,"NS_8","99","8900",0
"229xyGIaKNEWS0oeiN7biPTDrB","vzphpVwNe8iraL63m3Kfw4gFUU",522252,34,TRUE,"number_series_test_trial",31000,"NS_9","10/14","12/16",0
"22SLGyDjygVAernNoSd9funI0I","CpYNknKnH3IrhHxOd0jJpr2Us1",4071658,291,FALSE,"number_series_test_trial",8074,"NS_1","2","-2",0
"22SLGyDjygVAernNoSd9funI0I","CpYNknKnH3IrhHxOd0jJpr2Us1",4099305,292,FALSE,"number_series_test_trial",27643,"NS_2","28","28",1
"22SLGyDjygVAernNoSd9funI0I","CpYNknKnH3IrhHxOd0jJpr2Us1",4130329,293,TRUE,"number_series_test_trial",30997,"NS_3","63","64",0
"22SLGyDjygVAernNoSd9funI0I","CpYNknKnH3IrhHxOd0jJpr2Us1",4152959,294,FALSE,"number_series_test_trial",22613,"NS_4","33","29",0
"22SLGyDjygVAernNoSd9funI0I","CpYNknKnH3IrhHxOd0jJpr2Us1",4183962,295,TRUE,"number_series_test_trial",30998,"NS_5",NA,"8/16",NA
"22SLGyDjygVAernNoSd9funI0I","CpYNknKnH3IrhHxOd0jJpr2Us1",4210925,296,FALSE,"number_series_test_trial",26958,"NS_6","152","165",0
"22SLGyDjygVAernNoSd9funI0I","CpYNknKnH3IrhHxOd0jJpr2Us1",4241929,297,TRUE,"number_series_test_trial",31001,"NS_7",NA,"43",NA
"22SLGyDjygVAernNoSd9funI0I","CpYNknKnH3IrhHxOd0jJpr2Us1",4272933,298,TRUE,"number_series_test_trial",30999,"NS_8",NA,"8900",NA
"22SLGyDjygVAernNoSd9funI0I","CpYNknKnH3IrhHxOd0jJpr2Us1",4288330,299,FALSE,"number_series_test_trial",15392,"NS_9","14/16","12/16",0
"23HD27W1197H9sHMwteQG7Jugr","fUNpEaW3HV1HefLf3vF4PykLPo",2252222,506,FALSE,"number_series_test_trial",24284,"NS_1","-2","-2",1
"23HD27W1197H9sHMwteQG7Jugr","fUNpEaW3HV1HefLf3vF4PykLPo",2264113,507,FALSE,"number_series_test_trial",11882,"NS_2","28","28",1
"23HD27W1197H9sHMwteQG7Jugr","fUNpEaW3HV1HefLf3vF4PykLPo",2295123,508,TRUE,"number_series_test_trial",31001,"NS_3",NA,"64",NA
"23HD27W1197H9sHMwteQG7Jugr","fUNpEaW3HV1HefLf3vF4PykLPo",2326129,509,TRUE,"number_series_test_trial",30999,"NS_4",NA,"29",NA
"23HD27W1197H9sHMwteQG7Jugr","fUNpEaW3HV1HefLf3vF4PykLPo",2357137,510,TRUE,"number_series_test_trial",31000,"NS_5",NA,"8/16",NA
"23HD27W1197H9sHMwteQG7Jugr","fUNpEaW3HV1HefLf3vF4PykLPo",2373731,511,FALSE,"number_series_test_trial",16586,"NS_6","170","165",0
"23HD27W1197H9sHMwteQG7Jugr","fUNpEaW3HV1HefLf3vF4PykLPo",2404738,512,TRUE,"number_series_test_trial",31000,"NS_7",NA,"43",NA
"23HD27W1197H9sHMwteQG7Jugr","fUNpEaW3HV1HefLf3vF4PykLPo",2435745,513,TRUE,"number_series_test_trial",31001,"NS_8","8","8900",0
"23HD27W1197H9sHMwteQG7Jugr","fUNpEaW3HV1HefLf3vF4PykLPo",2466753,514,TRUE,"number_series_test_trial",31000,"NS_9","10/20","12/16",0
"27AV1HkWznJc86h2ia7qzeaAan","kxMHw5kYSVZNK3Zman2rk9uj0k",10863774,1137,FALSE,"number_series_test_trial",13967,"NS_1","-2","-2",1
"27AV1HkWznJc86h2ia7qzeaAan","kxMHw5kYSVZNK3Zman2rk9uj0k",10892582,1138,FALSE,"number_series_test_trial",28790,"NS_2","28","28",1
"27AV1HkWznJc86h2ia7qzeaAan","kxMHw5kYSVZNK3Zman2rk9uj0k",10923598,1139,TRUE,"number_series_test_trial",31000,"NS_3",NA,"64",NA
"27AV1HkWznJc86h2ia7qzeaAan","kxMHw5kYSVZNK3Zman2rk9uj0k",10938927,1140,FALSE,"number_series_test_trial",15315,"NS_4","29","29",1
"27AV1HkWznJc86h2ia7qzeaAan","kxMHw5kYSVZNK3Zman2rk9uj0k",10969940,1141,TRUE,"number_series_test_trial",30997,"NS_5","7/14","8/16",0
"27AV1HkWznJc86h2ia7qzeaAan","kxMHw5kYSVZNK3Zman2rk9uj0k",10984840,1142,FALSE,"number_series_test_trial",14884,"NS_6","164","165",0
"27AV1HkWznJc86h2ia7qzeaAan","kxMHw5kYSVZNK3Zman2rk9uj0k",11008896,1143,FALSE,"number_series_test_trial",24044,"NS_7","6","43",0
"27AV1HkWznJc86h2ia7qzeaAan","kxMHw5kYSVZNK3Zman2rk9uj0k",11032180,1144,FALSE,"number_series_test_trial",23271,"NS_8","9001","8900",0
"27AV1HkWznJc86h2ia7qzeaAan","kxMHw5kYSVZNK3Zman2rk9uj0k",11063191,1145,TRUE,"number_series_test_trial",30999,"NS_9","10/","12/16",0
"2Ae7wnUWcndUGrOvagks7LUeMP","V8Y0lAQWawdtltpa1WVVmrmXsS",4336355,796,FALSE,"number_series_test_trial",10386,"NS_1","-2","-2",1
"2Ae7wnUWcndUGrOvagks7LUeMP","V8Y0lAQWawdtltpa1WVVmrmXsS",4365587,797,FALSE,"number_series_test_trial",29230,"NS_2","28","28",1
"2Ae7wnUWcndUGrOvagks7LUeMP","V8Y0lAQWawdtltpa1WVVmrmXsS",4374446,798,FALSE,"number_series_test_trial",8857,"NS_3","64","64",1
"2Ae7wnUWcndUGrOvagks7LUeMP","V8Y0lAQWawdtltpa1WVVmrmXsS",4405452,799,TRUE,"number_series_test_trial",31004,"NS_4",NA,"29",NA
"2Ae7wnUWcndUGrOvagks7LUeMP","V8Y0lAQWawdtltpa1WVVmrmXsS",4436456,800,TRUE,"number_series_test_trial",30999,"NS_5",NA,"8/16",NA
"2Ae7wnUWcndUGrOvagks7LUeMP","V8Y0lAQWawdtltpa1WVVmrmXsS",4459939,801,FALSE,"number_series_test_trial",23482,"NS_6","160","165",0
"2Ae7wnUWcndUGrOvagks7LUeMP","V8Y0lAQWawdtltpa1WVVmrmXsS",4490945,802,TRUE,"number_series_test_trial",31003,"NS_7",NA,"43",NA
"2Ae7wnUWcndUGrOvagks7LUeMP","V8Y0lAQWawdtltpa1WVVmrmXsS",4520816,803,FALSE,"number_series_test_trial",29865,"NS_8","9988","8900",0
"2Ae7wnUWcndUGrOvagks7LUeMP","V8Y0lAQWawdtltpa1WVVmrmXsS",4544712,804,FALSE,"number_series_test_trial",23893,"NS_9","12/16","12/16",1
"2aQZXR26aFtNfvbuKuJDBeA0yZ","wtB2nxLQOG7jdTUtWjQtfAy354",197588,29,FALSE,"number_series_test_trial",8058,"NS_1","-2","-2",1
"2aQZXR26aFtNfvbuKuJDBeA0yZ","wtB2nxLQOG7jdTUtWjQtfAy354",206419,30,FALSE,"number_series_test_trial",8829,"NS_2","28","28",1
"2aQZXR26aFtNfvbuKuJDBeA0yZ","wtB2nxLQOG7jdTUtWjQtfAy354",234357,31,FALSE,"number_series_test_trial",27934,"NS_3","60","64",0
"2aQZXR26aFtNfvbuKuJDBeA0yZ","wtB2nxLQOG7jdTUtWjQtfAy354",250124,32,FALSE,"number_series_test_trial",15764,"NS_4","29","29",1
"2aQZXR26aFtNfvbuKuJDBeA0yZ","wtB2nxLQOG7jdTUtWjQtfAy354",281129,33,TRUE,"number_series_test_trial",31001,"NS_5",NA,"8/16",NA
"2aQZXR26aFtNfvbuKuJDBeA0yZ","wtB2nxLQOG7jdTUtWjQtfAy354",311367,34,FALSE,"number_series_test_trial",30235,"NS_6","155","165",0
"2aQZXR26aFtNfvbuKuJDBeA0yZ","wtB2nxLQOG7jdTUtWjQtfAy354",342371,35,TRUE,"number_series_test_trial",31001,"NS_7",NA,"43",NA
"2aQZXR26aFtNfvbuKuJDBeA0yZ","wtB2nxLQOG7jdTUtWjQtfAy354",358525,36,FALSE,"number_series_test_trial",16152,"NS_8","8900","8900",1
"2aQZXR26aFtNfvbuKuJDBeA0yZ","wtB2nxLQOG7jdTUtWjQtfAy354",389529,37,TRUE,"number_series_test_trial",31000,"NS_9",NA,"12/16",NA
"2BbadaObQh5WnCZXiWm3e9vkVw","ObAyQHbQwR3n7nLEVmftuLVmpL",18019755,881,FALSE,"number_series_test_trial",16082,"NS_1","-2","-2",1
"2BbadaObQh5WnCZXiWm3e9vkVw","ObAyQHbQwR3n7nLEVmftuLVmpL",18050764,882,TRUE,"number_series_test_trial",31000,"NS_2",NA,"28",NA
"2BbadaObQh5WnCZXiWm3e9vkVw","ObAyQHbQwR3n7nLEVmftuLVmpL",18075884,883,FALSE,"number_series_test_trial",25116,"NS_3","64","64",1
"2BbadaObQh5WnCZXiWm3e9vkVw","ObAyQHbQwR3n7nLEVmftuLVmpL",18106891,884,TRUE,"number_series_test_trial",31000,"NS_4",NA,"29",NA
"2BbadaObQh5WnCZXiWm3e9vkVw","ObAyQHbQwR3n7nLEVmftuLVmpL",18135804,885,FALSE,"number_series_test_trial",28903,"NS_5","8/16","8/16",1
"2BbadaObQh5WnCZXiWm3e9vkVw","ObAyQHbQwR3n7nLEVmftuLVmpL",18166809,886,TRUE,"number_series_test_trial",30999,"NS_6",NA,"165",NA
"2BbadaObQh5WnCZXiWm3e9vkVw","ObAyQHbQwR3n7nLEVmftuLVmpL",18197813,887,TRUE,"number_series_test_trial",31001,"NS_7",NA,"43",NA
"2BbadaObQh5WnCZXiWm3e9vkVw","ObAyQHbQwR3n7nLEVmftuLVmpL",18228818,888,TRUE,"number_series_test_trial",31001,"NS_8",NA,"8900",NA
"2BbadaObQh5WnCZXiWm3e9vkVw","ObAyQHbQwR3n7nLEVmftuLVmpL",18259824,889,TRUE,"number_series_test_trial",31001,"NS_9","10/","12/16",0
"2BSQyVgbrBh50btdNl6EK3U8Cy","UM1BTNFAaDNDJ2uJ15OwXZmra1",3789187,863,FALSE,"number_series_test_trial",9701,"NS_1","-2","-2",1
"2BSQyVgbrBh50btdNl6EK3U8Cy","UM1BTNFAaDNDJ2uJ15OwXZmra1",3801840,864,FALSE,"number_series_test_trial",12645,"NS_2","31","28",0
"2BSQyVgbrBh50btdNl6EK3U8Cy","UM1BTNFAaDNDJ2uJ15OwXZmra1",3820277,865,FALSE,"number_series_test_trial",18427,"NS_3","63","64",0
"2BSQyVgbrBh50btdNl6EK3U8Cy","UM1BTNFAaDNDJ2uJ15OwXZmra1",3834691,866,FALSE,"number_series_test_trial",14403,"NS_4","30","29",0
"2BSQyVgbrBh50btdNl6EK3U8Cy","UM1BTNFAaDNDJ2uJ15OwXZmra1",3859502,867,FALSE,"number_series_test_trial",24802,"NS_5","8/16","8/16",1
"2BSQyVgbrBh50btdNl6EK3U8Cy","UM1BTNFAaDNDJ2uJ15OwXZmra1",3879715,868,FALSE,"number_series_test_trial",20205,"NS_6","160","165",0
"2BSQyVgbrBh50btdNl6EK3U8Cy","UM1BTNFAaDNDJ2uJ15OwXZmra1",3894468,869,FALSE,"number_series_test_trial",14745,"NS_7","7","43",0
"2BSQyVgbrBh50btdNl6EK3U8Cy","UM1BTNFAaDNDJ2uJ15OwXZmra1",3919142,870,FALSE,"number_series_test_trial",24666,"NS_8","8900","8900",1
"2BSQyVgbrBh50btdNl6EK3U8Cy","UM1BTNFAaDNDJ2uJ15OwXZmra1",3930248,871,FALSE,"number_series_test_trial",11099,"NS_9","10/14","12/16",0
"2bzzlY8CXwFaRLtIWXsNTF6zU1","IKEM6GQ7H1R0BcjekVgrTpoCB7",16719884,237,FALSE,"number_series_test_trial",12953,"NS_1","-2","-2",1
"2bzzlY8CXwFaRLtIWXsNTF6zU1","IKEM6GQ7H1R0BcjekVgrTpoCB7",16742162,238,FALSE,"number_series_test_trial",22269,"NS_2","28","28",1
"2bzzlY8CXwFaRLtIWXsNTF6zU1","IKEM6GQ7H1R0BcjekVgrTpoCB7",16762166,239,FALSE,"number_series_test_trial",20000,"NS_3","64","64",1
"2bzzlY8CXwFaRLtIWXsNTF6zU1","IKEM6GQ7H1R0BcjekVgrTpoCB7",16790611,240,FALSE,"number_series_test_trial",28442,"NS_4","28","29",0
"2bzzlY8CXwFaRLtIWXsNTF6zU1","IKEM6GQ7H1R0BcjekVgrTpoCB7",16819596,241,FALSE,"number_series_test_trial",28980,"NS_5","8/16","8/16",1
"2bzzlY8CXwFaRLtIWXsNTF6zU1","IKEM6GQ7H1R0BcjekVgrTpoCB7",16848229,242,FALSE,"number_series_test_trial",28630,"NS_6","173","165",0
"2bzzlY8CXwFaRLtIWXsNTF6zU1","IKEM6GQ7H1R0BcjekVgrTpoCB7",16874064,243,FALSE,"number_series_test_trial",25831,"NS_7","42","43",0
"2bzzlY8CXwFaRLtIWXsNTF6zU1","IKEM6GQ7H1R0BcjekVgrTpoCB7",16903241,244,FALSE,"number_series_test_trial",29174,"NS_8","8990","8900",0
"2bzzlY8CXwFaRLtIWXsNTF6zU1","IKEM6GQ7H1R0BcjekVgrTpoCB7",16929838,245,FALSE,"number_series_test_trial",26592,"NS_9","10/14","12/16",0
"2C5DtnlTohwdyo1AXzAqIOgcsh","LHjkHx5YN1aTjriO1mJyuudFlP",980433,384,FALSE,"number_series_test_trial",25612,"NS_1","-2","-2",1
"2C5DtnlTohwdyo1AXzAqIOgcsh","LHjkHx5YN1aTjriO1mJyuudFlP",992889,385,FALSE,"number_series_test_trial",12449,"NS_2","28","28",1
"2C5DtnlTohwdyo1AXzAqIOgcsh","LHjkHx5YN1aTjriO1mJyuudFlP",1009799,386,FALSE,"number_series_test_trial",16905,"NS_3","64","64",1
"2C5DtnlTohwdyo1AXzAqIOgcsh","LHjkHx5YN1aTjriO1mJyuudFlP",1034581,387,FALSE,"number_series_test_trial",24777,"NS_4","29","29",1
"2C5DtnlTohwdyo1AXzAqIOgcsh","LHjkHx5YN1aTjriO1mJyuudFlP",1065591,388,TRUE,"number_series_test_trial",31005,"NS_5",NA,"8/16",NA
"2C5DtnlTohwdyo1AXzAqIOgcsh","LHjkHx5YN1aTjriO1mJyuudFlP",1081603,389,FALSE,"number_series_test_trial",16008,"NS_6","150","165",0
"2C5DtnlTohwdyo1AXzAqIOgcsh","LHjkHx5YN1aTjriO1mJyuudFlP",1112609,390,TRUE,"number_series_test_trial",31000,"NS_7",NA,"43",NA
"2C5DtnlTohwdyo1AXzAqIOgcsh","LHjkHx5YN1aTjriO1mJyuudFlP",1128311,391,FALSE,"number_series_test_trial",15696,"NS_8","8999","8900",0
"2C5DtnlTohwdyo1AXzAqIOgcsh","LHjkHx5YN1aTjriO1mJyuudFlP",1159331,392,TRUE,"number_series_test_trial",31014,"NS_9","12/16,","12/16",0
"2COV6nUMhLRXTmoPS3pdjRr40b","uQbSKm95zApAEX45p8vUQON1i1",718660,602,FALSE,"number_series_test_trial",10537,"NS_1","-2","-2",1
"2COV6nUMhLRXTmoPS3pdjRr40b","uQbSKm95zApAEX45p8vUQON1i1",729992,603,FALSE,"number_series_test_trial",11317,"NS_2","28","28",1
"2COV6nUMhLRXTmoPS3pdjRr40b","uQbSKm95zApAEX45p8vUQON1i1",753773,604,FALSE,"number_series_test_trial",23763,"NS_3","61","64",0
"2COV6nUMhLRXTmoPS3pdjRr40b","uQbSKm95zApAEX45p8vUQON1i1",773298,605,FALSE,"number_series_test_trial",19519,"NS_4","29","29",1
"2COV6nUMhLRXTmoPS3pdjRr40b","uQbSKm95zApAEX45p8vUQON1i1",804314,606,TRUE,"number_series_test_trial",31001,"NS_5",NA,"8/16",NA
"2COV6nUMhLRXTmoPS3pdjRr40b","uQbSKm95zApAEX45p8vUQON1i1",822406,607,FALSE,"number_series_test_trial",18078,"NS_6","172","165",0
"2COV6nUMhLRXTmoPS3pdjRr40b","uQbSKm95zApAEX45p8vUQON1i1",852694,608,FALSE,"number_series_test_trial",30280,"NS_7","44","43",0
"2COV6nUMhLRXTmoPS3pdjRr40b","uQbSKm95zApAEX45p8vUQON1i1",862205,609,FALSE,"number_series_test_trial",9499,"NS_8","8900","8900",1
"2COV6nUMhLRXTmoPS3pdjRr40b","uQbSKm95zApAEX45p8vUQON1i1",893207,610,TRUE,"number_series_test_trial",30988,"NS_9",NA,"12/16",NA
"2HvcPyWqIgSow0Y7B5UNDR1o1g","SsXh00voSqjHWLgnXg862fBihQ",259738,26,TRUE,"number_series_test_trial",30955,"NS_1",NA,"-2",NA
"2HvcPyWqIgSow0Y7B5UNDR1o1g","SsXh00voSqjHWLgnXg862fBihQ",277641,27,FALSE,"number_series_test_trial",17874,"NS_2","28","28",1
"2HvcPyWqIgSow0Y7B5UNDR1o1g","SsXh00voSqjHWLgnXg862fBihQ",303004,28,FALSE,"number_series_test_trial",25335,"NS_3","64","64",1
"2HvcPyWqIgSow0Y7B5UNDR1o1g","SsXh00voSqjHWLgnXg862fBihQ",334022,29,TRUE,"number_series_test_trial",30983,"NS_4",NA,"29",NA
"2HvcPyWqIgSow0Y7B5UNDR1o1g","SsXh00voSqjHWLgnXg862fBihQ",365038,30,TRUE,"number_series_test_trial",30984,"NS_5",NA,"8/16",NA
"2HvcPyWqIgSow0Y7B5UNDR1o1g","SsXh00voSqjHWLgnXg862fBihQ",396053,31,TRUE,"number_series_test_trial",30986,"NS_6",NA,"165",NA
"2HvcPyWqIgSow0Y7B5UNDR1o1g","SsXh00voSqjHWLgnXg862fBihQ",427074,32,TRUE,"number_series_test_trial",30985,"NS_7",NA,"43",NA
"2HvcPyWqIgSow0Y7B5UNDR1o1g","SsXh00voSqjHWLgnXg862fBihQ",458096,33,TRUE,"number_series_test_trial",30985,"NS_8",NA,"8900",NA
"2HvcPyWqIgSow0Y7B5UNDR1o1g","SsXh00voSqjHWLgnXg862fBihQ",492917,34,TRUE,"number_series_test_trial",30963,"NS_9",NA,"12/16",NA
"2iW5aedfeK1xomkAYXya3H6Sl7","cUxMBHqJjw8Iq2oFvb55dcmXI3",109679139,921,FALSE,"number_series_test_trial",10879,"NS_1","-2","-2",1
"2iW5aedfeK1xomkAYXya3H6Sl7","cUxMBHqJjw8Iq2oFvb55dcmXI3",109687901,922,FALSE,"number_series_test_trial",8759,"NS_2","28","28",1
"2iW5aedfeK1xomkAYXya3H6Sl7","cUxMBHqJjw8Iq2oFvb55dcmXI3",109701626,923,FALSE,"number_series_test_trial",13722,"NS_3","62","64",0
"2iW5aedfeK1xomkAYXya3H6Sl7","cUxMBHqJjw8Iq2oFvb55dcmXI3",109723495,924,FALSE,"number_series_test_trial",21864,"NS_4","27","29",0
"2iW5aedfeK1xomkAYXya3H6Sl7","cUxMBHqJjw8Iq2oFvb55dcmXI3",109753144,925,FALSE,"number_series_test_trial",29642,"NS_5","10/16","8/16",0
"2iW5aedfeK1xomkAYXya3H6Sl7","cUxMBHqJjw8Iq2oFvb55dcmXI3",109784154,926,TRUE,"number_series_test_trial",31001,"NS_6","150","165",0
"2iW5aedfeK1xomkAYXya3H6Sl7","cUxMBHqJjw8Iq2oFvb55dcmXI3",109802754,927,FALSE,"number_series_test_trial",18596,"NS_7","43","43",1
"2iW5aedfeK1xomkAYXya3H6Sl7","cUxMBHqJjw8Iq2oFvb55dcmXI3",109820860,928,FALSE,"number_series_test_trial",18104,"NS_8","8900","8900",1
"2iW5aedfeK1xomkAYXya3H6Sl7","cUxMBHqJjw8Iq2oFvb55dcmXI3",109851866,929,TRUE,"number_series_test_trial",31001,"NS_9","10/16","12/16",0
"2Kk30fz2ObcGfo1bH2DzHn6Kdl","LB0KYUQCFZkIqBfWMtBiNxexTW",3573957,1222,FALSE,"number_series_test_trial",20945,"NS_1","-1","-2",0
"2Kk30fz2ObcGfo1bH2DzHn6Kdl","LB0KYUQCFZkIqBfWMtBiNxexTW",3582565,1223,FALSE,"number_series_test_trial",8595,"NS_2","28","28",1
"2Kk30fz2ObcGfo1bH2DzHn6Kdl","LB0KYUQCFZkIqBfWMtBiNxexTW",3603991,1224,FALSE,"number_series_test_trial",21413,"NS_3","63","64",0
"2Kk30fz2ObcGfo1bH2DzHn6Kdl","LB0KYUQCFZkIqBfWMtBiNxexTW",3617427,1225,FALSE,"number_series_test_trial",13426,"NS_4","29","29",1
"2Kk30fz2ObcGfo1bH2DzHn6Kdl","LB0KYUQCFZkIqBfWMtBiNxexTW",3645410,1226,FALSE,"number_series_test_trial",27973,"NS_5","18/16","8/16",0
"2Kk30fz2ObcGfo1bH2DzHn6Kdl","LB0KYUQCFZkIqBfWMtBiNxexTW",3676417,1227,TRUE,"number_series_test_trial",30996,"NS_6","1","165",0
"2Kk30fz2ObcGfo1bH2DzHn6Kdl","LB0KYUQCFZkIqBfWMtBiNxexTW",3677315,1228,FALSE,"number_series_test_trial",887,"NS_7","60","43",0
"2Kk30fz2ObcGfo1bH2DzHn6Kdl","LB0KYUQCFZkIqBfWMtBiNxexTW",3708321,1229,TRUE,"number_series_test_trial",30996,"NS_8","8900","8900",1
"2Kk30fz2ObcGfo1bH2DzHn6Kdl","LB0KYUQCFZkIqBfWMtBiNxexTW",3717413,1230,FALSE,"number_series_test_trial",9080,"NS_9","12/16","12/16",1
"2KuJ4f2LdhEueMmip3ipFVwITm","m7gXmgJZnJxerZyZVFQWD6F3eq",3028506,1147,FALSE,"number_series_test_trial",7593,"NS_1","-2","-2",1
"2KuJ4f2LdhEueMmip3ipFVwITm","m7gXmgJZnJxerZyZVFQWD6F3eq",3037221,1148,FALSE,"number_series_test_trial",8713,"NS_2","28","28",1
"2KuJ4f2LdhEueMmip3ipFVwITm","m7gXmgJZnJxerZyZVFQWD6F3eq",3064102,1149,FALSE,"number_series_test_trial",26880,"NS_3","64","64",1
"2KuJ4f2LdhEueMmip3ipFVwITm","m7gXmgJZnJxerZyZVFQWD6F3eq",3079605,1150,FALSE,"number_series_test_trial",15501,"NS_4","27","29",0
"2KuJ4f2LdhEueMmip3ipFVwITm","m7gXmgJZnJxerZyZVFQWD6F3eq",3105139,1151,FALSE,"number_series_test_trial",25532,"NS_5","8/17","8/16",0
"2KuJ4f2LdhEueMmip3ipFVwITm","m7gXmgJZnJxerZyZVFQWD6F3eq",3129155,1152,FALSE,"number_series_test_trial",24015,"NS_6","151","165",0
"2KuJ4f2LdhEueMmip3ipFVwITm","m7gXmgJZnJxerZyZVFQWD6F3eq",3147020,1153,FALSE,"number_series_test_trial",17864,"NS_7","41","43",0
"2KuJ4f2LdhEueMmip3ipFVwITm","m7gXmgJZnJxerZyZVFQWD6F3eq",3165188,1154,FALSE,"number_series_test_trial",18167,"NS_8","8900","8900",1
"2KuJ4f2LdhEueMmip3ipFVwITm","m7gXmgJZnJxerZyZVFQWD6F3eq",3196193,1155,TRUE,"number_series_test_trial",31004,"NS_9",NA,"12/16",NA
"2P9goQ7BC60ryfbXcJfqY5Opuk","xY2iwfG0Rx3E7eux1wQtzdyMBC",432780,78,FALSE,"number_series_test_trial",12109,"NS_1","-2","-2",1
"2P9goQ7BC60ryfbXcJfqY5Opuk","xY2iwfG0Rx3E7eux1wQtzdyMBC",462092,79,FALSE,"number_series_test_trial",29303,"NS_2","28","28",1
"2P9goQ7BC60ryfbXcJfqY5Opuk","xY2iwfG0Rx3E7eux1wQtzdyMBC",468958,80,FALSE,"number_series_test_trial",6857,"NS_3","64","64",1
"2P9goQ7BC60ryfbXcJfqY5Opuk","xY2iwfG0Rx3E7eux1wQtzdyMBC",483609,81,FALSE,"number_series_test_trial",14643,"NS_4","31","29",0
"2P9goQ7BC60ryfbXcJfqY5Opuk","xY2iwfG0Rx3E7eux1wQtzdyMBC",504487,82,FALSE,"number_series_test_trial",20870,"NS_5","8/16","8/16",1
"2P9goQ7BC60ryfbXcJfqY5Opuk","xY2iwfG0Rx3E7eux1wQtzdyMBC",524448,83,FALSE,"number_series_test_trial",19954,"NS_6","144","165",0
"2P9goQ7BC60ryfbXcJfqY5Opuk","xY2iwfG0Rx3E7eux1wQtzdyMBC",546352,84,FALSE,"number_series_test_trial",21895,"NS_7","42","43",0
"2P9goQ7BC60ryfbXcJfqY5Opuk","xY2iwfG0Rx3E7eux1wQtzdyMBC",561096,85,FALSE,"number_series_test_trial",14736,"NS_8","9500","8900",0
"2P9goQ7BC60ryfbXcJfqY5Opuk","xY2iwfG0Rx3E7eux1wQtzdyMBC",578978,86,FALSE,"number_series_test_trial",17875,"NS_9","12/16","12/16",1
"2pVh1uFFDJWhz3IJSvqAmaTMnX","X8GVOEytvJMmKfzLtTefmFcN6L",1491507,626,FALSE,"number_series_test_trial",3458,"NS_1","45","-2",0
"2pVh1uFFDJWhz3IJSvqAmaTMnX","X8GVOEytvJMmKfzLtTefmFcN6L",1493645,627,FALSE,"number_series_test_trial",2133,"NS_2","56","28",0
"2pVh1uFFDJWhz3IJSvqAmaTMnX","X8GVOEytvJMmKfzLtTefmFcN6L",1494653,628,FALSE,"number_series_test_trial",1000,"NS_3","87","64",0
"2pVh1uFFDJWhz3IJSvqAmaTMnX","X8GVOEytvJMmKfzLtTefmFcN6L",1495761,629,FALSE,"number_series_test_trial",1103,"NS_4","12","29",0
"2pVh1uFFDJWhz3IJSvqAmaTMnX","X8GVOEytvJMmKfzLtTefmFcN6L",1505186,630,FALSE,"number_series_test_trial",9421,"NS_5","12/3","8/16",0
"2pVh1uFFDJWhz3IJSvqAmaTMnX","X8GVOEytvJMmKfzLtTefmFcN6L",1507063,631,FALSE,"number_series_test_trial",1871,"NS_6","234","165",0
"2pVh1uFFDJWhz3IJSvqAmaTMnX","X8GVOEytvJMmKfzLtTefmFcN6L",1508263,632,FALSE,"number_series_test_trial",1196,"NS_7","5","43",0
"2pVh1uFFDJWhz3IJSvqAmaTMnX","X8GVOEytvJMmKfzLtTefmFcN6L",1509753,633,FALSE,"number_series_test_trial",1487,"NS_8","4444","8900",0
"2pVh1uFFDJWhz3IJSvqAmaTMnX","X8GVOEytvJMmKfzLtTefmFcN6L",1513945,634,FALSE,"number_series_test_trial",4188,"NS_9","6/8","12/16",0
"2RxrmlEWI5tDbOtzjbwEAV1wdg","4PStPg8SHkiYvA6vaaWpMDS8X3",5284710,695,FALSE,"number_series_test_trial",26134,"NS_1","0","-2",0
"2RxrmlEWI5tDbOtzjbwEAV1wdg","4PStPg8SHkiYvA6vaaWpMDS8X3",5305408,696,FALSE,"number_series_test_trial",20691,"NS_2","27","28",0
"2RxrmlEWI5tDbOtzjbwEAV1wdg","4PStPg8SHkiYvA6vaaWpMDS8X3",5327646,697,FALSE,"number_series_test_trial",22233,"NS_3","60","64",0
"2RxrmlEWI5tDbOtzjbwEAV1wdg","4PStPg8SHkiYvA6vaaWpMDS8X3",5349284,698,FALSE,"number_series_test_trial",21632,"NS_4","29","29",1
"2RxrmlEWI5tDbOtzjbwEAV1wdg","4PStPg8SHkiYvA6vaaWpMDS8X3",5380289,699,TRUE,"number_series_test_trial",31001,"NS_5",NA,"8/16",NA
"2RxrmlEWI5tDbOtzjbwEAV1wdg","4PStPg8SHkiYvA6vaaWpMDS8X3",5391327,700,FALSE,"number_series_test_trial",11035,"NS_6","188","165",0
"2RxrmlEWI5tDbOtzjbwEAV1wdg","4PStPg8SHkiYvA6vaaWpMDS8X3",5402115,701,FALSE,"number_series_test_trial",10785,"NS_7","50","43",0
"2RxrmlEWI5tDbOtzjbwEAV1wdg","4PStPg8SHkiYvA6vaaWpMDS8X3",5410868,702,FALSE,"number_series_test_trial",8750,"NS_8","9500","8900",0
"2RxrmlEWI5tDbOtzjbwEAV1wdg","4PStPg8SHkiYvA6vaaWpMDS8X3",5420423,703,FALSE,"number_series_test_trial",9551,"NS_9","1/2","12/16",0
"2V4h6MBZsrOMlfBo517hiPabDT","M78GHAZLdcuIzgTcLCXiIpUq6q",1877993,728,FALSE,"number_series_test_trial",7249,"NS_1","-2","-2",1
"2V4h6MBZsrOMlfBo517hiPabDT","M78GHAZLdcuIzgTcLCXiIpUq6q",1887889,729,FALSE,"number_series_test_trial",9891,"NS_2","28","28",1
"2V4h6MBZsrOMlfBo517hiPabDT","M78GHAZLdcuIzgTcLCXiIpUq6q",1905112,730,FALSE,"number_series_test_trial",17216,"NS_3","62","64",0
"2V4h6MBZsrOMlfBo517hiPabDT","M78GHAZLdcuIzgTcLCXiIpUq6q",1915757,731,FALSE,"number_series_test_trial",10639,"NS_4","29","29",1
"2V4h6MBZsrOMlfBo517hiPabDT","M78GHAZLdcuIzgTcLCXiIpUq6q",1936380,732,FALSE,"number_series_test_trial",20620,"NS_5","8/7","8/16",0
"2V4h6MBZsrOMlfBo517hiPabDT","M78GHAZLdcuIzgTcLCXiIpUq6q",1952908,733,FALSE,"number_series_test_trial",16523,"NS_6","160","165",0
"2V4h6MBZsrOMlfBo517hiPabDT","M78GHAZLdcuIzgTcLCXiIpUq6q",1978768,734,FALSE,"number_series_test_trial",25855,"NS_7","7","43",0
"2V4h6MBZsrOMlfBo517hiPabDT","M78GHAZLdcuIzgTcLCXiIpUq6q",1990059,735,FALSE,"number_series_test_trial",11287,"NS_8","8899","8900",0
"2V4h6MBZsrOMlfBo517hiPabDT","M78GHAZLdcuIzgTcLCXiIpUq6q",1998836,736,FALSE,"number_series_test_trial",8773,"NS_9","12/14","12/16",0
"2wcOT9TyDjeMHAd0dihaPhzZms","Ng2qHu6S3f9o5sMmxvF6ii2pea",4357032,1284,TRUE,"number_series_test_trial",30999,"NS_1",NA,"-2",NA
"2wcOT9TyDjeMHAd0dihaPhzZms","Ng2qHu6S3f9o5sMmxvF6ii2pea",4380288,1285,FALSE,"number_series_test_trial",23253,"NS_2","28","28",1
"2wcOT9TyDjeMHAd0dihaPhzZms","Ng2qHu6S3f9o5sMmxvF6ii2pea",4404271,1286,FALSE,"number_series_test_trial",23976,"NS_3","60","64",0
"2wcOT9TyDjeMHAd0dihaPhzZms","Ng2qHu6S3f9o5sMmxvF6ii2pea",4428684,1287,FALSE,"number_series_test_trial",24408,"NS_4","30","29",0
"2wcOT9TyDjeMHAd0dihaPhzZms","Ng2qHu6S3f9o5sMmxvF6ii2pea",4459686,1288,TRUE,"number_series_test_trial",30997,"NS_5","8/2","8/16",0
"2wcOT9TyDjeMHAd0dihaPhzZms","Ng2qHu6S3f9o5sMmxvF6ii2pea",4484943,1289,FALSE,"number_series_test_trial",25254,"NS_6","160","165",0
"2wcOT9TyDjeMHAd0dihaPhzZms","Ng2qHu6S3f9o5sMmxvF6ii2pea",4501851,1290,FALSE,"number_series_test_trial",16903,"NS_7","22","43",0
"2wcOT9TyDjeMHAd0dihaPhzZms","Ng2qHu6S3f9o5sMmxvF6ii2pea",4516020,1291,FALSE,"number_series_test_trial",14164,"NS_8","8000","8900",0
"2wcOT9TyDjeMHAd0dihaPhzZms","Ng2qHu6S3f9o5sMmxvF6ii2pea",4533176,1292,FALSE,"number_series_test_trial",17150,"NS_9","9/12","12/16",0
"2xoSWRgzLkSHtysZ9l2uSeJsus","bdcRmIRSbuwuYvLJA8O1fYI3OR",5112225,1296,FALSE,"number_series_test_trial",27329,"NS_1","6","-2",0
"2xoSWRgzLkSHtysZ9l2uSeJsus","bdcRmIRSbuwuYvLJA8O1fYI3OR",5137192,1297,FALSE,"number_series_test_trial",24939,"NS_2","30","28",0
"2xoSWRgzLkSHtysZ9l2uSeJsus","bdcRmIRSbuwuYvLJA8O1fYI3OR",5149736,1298,FALSE,"number_series_test_trial",12513,"NS_3","25","64",0
"2xoSWRgzLkSHtysZ9l2uSeJsus","bdcRmIRSbuwuYvLJA8O1fYI3OR",5180753,1299,TRUE,"number_series_test_trial",30989,"NS_4",NA,"29",NA
"2xoSWRgzLkSHtysZ9l2uSeJsus","bdcRmIRSbuwuYvLJA8O1fYI3OR",5203403,1300,FALSE,"number_series_test_trial",22624,"NS_5","3/44","8/16",0
"2xoSWRgzLkSHtysZ9l2uSeJsus","bdcRmIRSbuwuYvLJA8O1fYI3OR",5218933,1301,FALSE,"number_series_test_trial",15491,"NS_6","168","165",0
"2xoSWRgzLkSHtysZ9l2uSeJsus","bdcRmIRSbuwuYvLJA8O1fYI3OR",5242055,1302,FALSE,"number_series_test_trial",23074,"NS_7","40","43",0
"2xoSWRgzLkSHtysZ9l2uSeJsus","bdcRmIRSbuwuYvLJA8O1fYI3OR",5273080,1303,TRUE,"number_series_test_trial",30996,"NS_8","988","8900",0
"2xoSWRgzLkSHtysZ9l2uSeJsus","bdcRmIRSbuwuYvLJA8O1fYI3OR",5304106,1304,TRUE,"number_series_test_trial",31002,"NS_9","1","12/16",0
"2XR0GEl4UEUaqMuhK6wGW1Gdfz","mf0RdLZvy29Onk4C4M8rnlSqUV",72035,12,FALSE,"number_series_test_trial",12877,"NS_1","1","-2",0
"2XR0GEl4UEUaqMuhK6wGW1Gdfz","mf0RdLZvy29Onk4C4M8rnlSqUV",96452,13,FALSE,"number_series_test_trial",24414,"NS_2","28","28",1
"2XR0GEl4UEUaqMuhK6wGW1Gdfz","mf0RdLZvy29Onk4C4M8rnlSqUV",127458,14,TRUE,"number_series_test_trial",31003,"NS_3",NA,"64",NA
"2XR0GEl4UEUaqMuhK6wGW1Gdfz","mf0RdLZvy29Onk4C4M8rnlSqUV",135981,15,FALSE,"number_series_test_trial",8516,"NS_4","64","29",0
"2XR0GEl4UEUaqMuhK6wGW1Gdfz","mf0RdLZvy29Onk4C4M8rnlSqUV",166984,16,TRUE,"number_series_test_trial",31000,"NS_5","8/","8/16",0
"2XR0GEl4UEUaqMuhK6wGW1Gdfz","mf0RdLZvy29Onk4C4M8rnlSqUV",197988,17,TRUE,"number_series_test_trial",30999,"NS_6","1","165",0
"2XR0GEl4UEUaqMuhK6wGW1Gdfz","mf0RdLZvy29Onk4C4M8rnlSqUV",204889,18,FALSE,"number_series_test_trial",6898,"NS_7","168","43",0
"2XR0GEl4UEUaqMuhK6wGW1Gdfz","mf0RdLZvy29Onk4C4M8rnlSqUV",222948,19,FALSE,"number_series_test_trial",18054,"NS_8","8900","8900",1
"2XR0GEl4UEUaqMuhK6wGW1Gdfz","mf0RdLZvy29Onk4C4M8rnlSqUV",242699,20,FALSE,"number_series_test_trial",19747,"NS_9","10/16","12/16",0
"3aJYYCtUlwBOKdPuWblVLPbPUK","Bt6lhQ2MVXH6ShmFep7xLZPwjK",2555737,621,FALSE,"number_series_test_trial",17352,"NS_1","-2","-2",1
"3aJYYCtUlwBOKdPuWblVLPbPUK","Bt6lhQ2MVXH6ShmFep7xLZPwjK",2566258,622,FALSE,"number_series_test_trial",10519,"NS_2","28","28",1
"3aJYYCtUlwBOKdPuWblVLPbPUK","Bt6lhQ2MVXH6ShmFep7xLZPwjK",2597262,623,TRUE,"number_series_test_trial",31002,"NS_3","64","64",1
"3aJYYCtUlwBOKdPuWblVLPbPUK","Bt6lhQ2MVXH6ShmFep7xLZPwjK",2625240,624,FALSE,"number_series_test_trial",27975,"NS_4","29","29",1
"3aJYYCtUlwBOKdPuWblVLPbPUK","Bt6lhQ2MVXH6ShmFep7xLZPwjK",2656245,625,TRUE,"number_series_test_trial",31002,"NS_5","/16","8/16",0
"3aJYYCtUlwBOKdPuWblVLPbPUK","Bt6lhQ2MVXH6ShmFep7xLZPwjK",2687250,626,TRUE,"number_series_test_trial",31001,"NS_6",NA,"165",NA
"3aJYYCtUlwBOKdPuWblVLPbPUK","Bt6lhQ2MVXH6ShmFep7xLZPwjK",2705720,627,FALSE,"number_series_test_trial",18466,"NS_7","43","43",1
"3aJYYCtUlwBOKdPuWblVLPbPUK","Bt6lhQ2MVXH6ShmFep7xLZPwjK",2729947,628,FALSE,"number_series_test_trial",24224,"NS_8","8900","8900",1
"3aJYYCtUlwBOKdPuWblVLPbPUK","Bt6lhQ2MVXH6ShmFep7xLZPwjK",2760950,629,TRUE,"number_series_test_trial",31000,"NS_9",NA,"12/16",NA
"3BQ7w8jykBKHoWlZHzEdN1LKU4","EZ3M4rPzKRbQAHaCng8gOUuDEK",140949,26,FALSE,"number_series_test_trial",10398,"NS_1","-2","-2",1
"3BQ7w8jykBKHoWlZHzEdN1LKU4","EZ3M4rPzKRbQAHaCng8gOUuDEK",149160,27,FALSE,"number_series_test_trial",8207,"NS_2","28","28",1
"3BQ7w8jykBKHoWlZHzEdN1LKU4","EZ3M4rPzKRbQAHaCng8gOUuDEK",156881,28,FALSE,"number_series_test_trial",7719,"NS_3","64","64",1
"3BQ7w8jykBKHoWlZHzEdN1LKU4","EZ3M4rPzKRbQAHaCng8gOUuDEK",169916,29,FALSE,"number_series_test_trial",13031,"NS_4","29","29",1
"3BQ7w8jykBKHoWlZHzEdN1LKU4","EZ3M4rPzKRbQAHaCng8gOUuDEK",193716,30,FALSE,"number_series_test_trial",23796,"NS_5","8/16","8/16",1
"3BQ7w8jykBKHoWlZHzEdN1LKU4","EZ3M4rPzKRbQAHaCng8gOUuDEK",223508,31,FALSE,"number_series_test_trial",29787,"NS_6","152","165",0
"3BQ7w8jykBKHoWlZHzEdN1LKU4","EZ3M4rPzKRbQAHaCng8gOUuDEK",254513,32,TRUE,"number_series_test_trial",31003,"NS_7",NA,"43",NA
"3BQ7w8jykBKHoWlZHzEdN1LKU4","EZ3M4rPzKRbQAHaCng8gOUuDEK",283349,33,FALSE,"number_series_test_trial",28833,"NS_8","8900","8900",1
"3BQ7w8jykBKHoWlZHzEdN1LKU4","EZ3M4rPzKRbQAHaCng8gOUuDEK",313501,34,FALSE,"number_series_test_trial",30150,"NS_9","12/16","12/16",1
"3C0LXeV1fmENxOlXZU8dx6rLEB","GP0XtRwp7iXFb2ilimXyimKTTD",1978046,177,FALSE,"number_series_test_trial",15525,"NS_1","-2","-2",1
"3C0LXeV1fmENxOlXZU8dx6rLEB","GP0XtRwp7iXFb2ilimXyimKTTD",2007597,178,FALSE,"number_series_test_trial",29547,"NS_2","28","28",1
"3C0LXeV1fmENxOlXZU8dx6rLEB","GP0XtRwp7iXFb2ilimXyimKTTD",2024037,179,FALSE,"number_series_test_trial",16437,"NS_3","64","64",1
"3C0LXeV1fmENxOlXZU8dx6rLEB","GP0XtRwp7iXFb2ilimXyimKTTD",2045653,180,FALSE,"number_series_test_trial",21611,"NS_4","29","29",1
"3C0LXeV1fmENxOlXZU8dx6rLEB","GP0XtRwp7iXFb2ilimXyimKTTD",2076660,181,TRUE,"number_series_test_trial",31004,"NS_5",NA,"8/16",NA
"3C0LXeV1fmENxOlXZU8dx6rLEB","GP0XtRwp7iXFb2ilimXyimKTTD",2107666,182,TRUE,"number_series_test_trial",30999,"NS_6","154","165",0
"3C0LXeV1fmENxOlXZU8dx6rLEB","GP0XtRwp7iXFb2ilimXyimKTTD",2137837,183,FALSE,"number_series_test_trial",30165,"NS_7","21","43",0
"3C0LXeV1fmENxOlXZU8dx6rLEB","GP0XtRwp7iXFb2ilimXyimKTTD",2168840,184,TRUE,"number_series_test_trial",31000,"NS_8","8891","8900",0
"3C0LXeV1fmENxOlXZU8dx6rLEB","GP0XtRwp7iXFb2ilimXyimKTTD",2199845,185,TRUE,"number_series_test_trial",30998,"NS_9",NA,"12/16",NA
"3dGG48PRaoSzdv7B0BBnXDgZoa","BKKxNAhdK7Rjbeez4JvVGQgVoJ",2390910,1057,FALSE,"number_series_test_trial",17723,"NS_1","-2","-2",1
"3dGG48PRaoSzdv7B0BBnXDgZoa","BKKxNAhdK7Rjbeez4JvVGQgVoJ",2400130,1058,FALSE,"number_series_test_trial",9214,"NS_2","28","28",1
"3dGG48PRaoSzdv7B0BBnXDgZoa","BKKxNAhdK7Rjbeez4JvVGQgVoJ",2421761,1059,FALSE,"number_series_test_trial",21626,"NS_3","64","64",1
"3dGG48PRaoSzdv7B0BBnXDgZoa","BKKxNAhdK7Rjbeez4JvVGQgVoJ",2446674,1060,FALSE,"number_series_test_trial",24906,"NS_4","29","29",1
"3dGG48PRaoSzdv7B0BBnXDgZoa","BKKxNAhdK7Rjbeez4JvVGQgVoJ",2473630,1061,FALSE,"number_series_test_trial",26951,"NS_5","8/16","8/16",1
"3dGG48PRaoSzdv7B0BBnXDgZoa","BKKxNAhdK7Rjbeez4JvVGQgVoJ",2504642,1062,TRUE,"number_series_test_trial",31006,"NS_6",NA,"165",NA
"3dGG48PRaoSzdv7B0BBnXDgZoa","BKKxNAhdK7Rjbeez4JvVGQgVoJ",2535655,1063,TRUE,"number_series_test_trial",31004,"NS_7",NA,"43",NA
"3dGG48PRaoSzdv7B0BBnXDgZoa","BKKxNAhdK7Rjbeez4JvVGQgVoJ",2566664,1064,TRUE,"number_series_test_trial",31001,"NS_8","8","8900",0
"3dGG48PRaoSzdv7B0BBnXDgZoa","BKKxNAhdK7Rjbeez4JvVGQgVoJ",2596348,1065,FALSE,"number_series_test_trial",29676,"NS_9","8/12","12/16",0
"3EKGRKPQYf90bnQAU7agBn8M6V","OMvrrbdS4FB49PQkXlSNUQg7aI",57094,12,FALSE,"number_series_test_trial",22828,"NS_1","-2","-2",1
"3EKGRKPQYf90bnQAU7agBn8M6V","OMvrrbdS4FB49PQkXlSNUQg7aI",73313,13,FALSE,"number_series_test_trial",16210,"NS_2","28","28",1
"3EKGRKPQYf90bnQAU7agBn8M6V","OMvrrbdS4FB49PQkXlSNUQg7aI",101288,14,FALSE,"number_series_test_trial",27959,"NS_3","63","64",0
"3EKGRKPQYf90bnQAU7agBn8M6V","OMvrrbdS4FB49PQkXlSNUQg7aI",119275,15,FALSE,"number_series_test_trial",17982,"NS_4","29","29",1
"3EKGRKPQYf90bnQAU7agBn8M6V","OMvrrbdS4FB49PQkXlSNUQg7aI",150283,16,TRUE,"number_series_test_trial",31002,"NS_5","1","8/16",0
"3EKGRKPQYf90bnQAU7agBn8M6V","OMvrrbdS4FB49PQkXlSNUQg7aI",169858,17,FALSE,"number_series_test_trial",19565,"NS_6","146","165",0
"3EKGRKPQYf90bnQAU7agBn8M6V","OMvrrbdS4FB49PQkXlSNUQg7aI",194858,18,FALSE,"number_series_test_trial",24995,"NS_7","44","43",0
"3EKGRKPQYf90bnQAU7agBn8M6V","OMvrrbdS4FB49PQkXlSNUQg7aI",225865,19,TRUE,"number_series_test_trial",31000,"NS_8","899","8900",0
"3EKGRKPQYf90bnQAU7agBn8M6V","OMvrrbdS4FB49PQkXlSNUQg7aI",245902,20,FALSE,"number_series_test_trial",20023,"NS_9","14/16","12/16",0
"3hmTdOWzZCh1B5qhXxcsJ2qkEC","qkFP7rr6XAcwbedWXZW9ZCFXhl",3221266,510,TRUE,"number_series_test_trial",30999,"NS_1","-2","-2",1
"3hmTdOWzZCh1B5qhXxcsJ2qkEC","qkFP7rr6XAcwbedWXZW9ZCFXhl",3234892,511,FALSE,"number_series_test_trial",13620,"NS_2","28","28",1
"3hmTdOWzZCh1B5qhXxcsJ2qkEC","qkFP7rr6XAcwbedWXZW9ZCFXhl",3248304,512,FALSE,"number_series_test_trial",13407,"NS_3","64","64",1
"3hmTdOWzZCh1B5qhXxcsJ2qkEC","qkFP7rr6XAcwbedWXZW9ZCFXhl",3279310,513,TRUE,"number_series_test_trial",30998,"NS_4",NA,"29",NA
"3hmTdOWzZCh1B5qhXxcsJ2qkEC","qkFP7rr6XAcwbedWXZW9ZCFXhl",3310315,514,TRUE,"number_series_test_trial",30996,"NS_5","29","8/16",0
"3hmTdOWzZCh1B5qhXxcsJ2qkEC","qkFP7rr6XAcwbedWXZW9ZCFXhl",3341320,515,TRUE,"number_series_test_trial",30996,"NS_6","172","165",0
"3hmTdOWzZCh1B5qhXxcsJ2qkEC","qkFP7rr6XAcwbedWXZW9ZCFXhl",3372324,516,TRUE,"number_series_test_trial",30992,"NS_7","40","43",0
"3hmTdOWzZCh1B5qhXxcsJ2qkEC","qkFP7rr6XAcwbedWXZW9ZCFXhl",3400487,517,FALSE,"number_series_test_trial",28158,"NS_8","8000","8900",0
"3hmTdOWzZCh1B5qhXxcsJ2qkEC","qkFP7rr6XAcwbedWXZW9ZCFXhl",3426846,518,FALSE,"number_series_test_trial",26352,"NS_9","12/20","12/16",0
"3jlB3p0ZI9RXNoCUWrzQ3p1ZYc","mBCcRbZBCB1gpDXuoEzrTdBXNm",1408651,119,FALSE,"number_series_test_trial",26899,"NS_1","-2","-2",1
"3jlB3p0ZI9RXNoCUWrzQ3p1ZYc","mBCcRbZBCB1gpDXuoEzrTdBXNm",1433971,120,FALSE,"number_series_test_trial",25316,"NS_2","45","28",0
"3jlB3p0ZI9RXNoCUWrzQ3p1ZYc","mBCcRbZBCB1gpDXuoEzrTdBXNm",1448940,121,FALSE,"number_series_test_trial",14963,"NS_3","60","64",0
"3jlB3p0ZI9RXNoCUWrzQ3p1ZYc","mBCcRbZBCB1gpDXuoEzrTdBXNm",1461699,122,FALSE,"number_series_test_trial",12753,"NS_4","28","29",0
"3jlB3p0ZI9RXNoCUWrzQ3p1ZYc","mBCcRbZBCB1gpDXuoEzrTdBXNm",1485931,123,FALSE,"number_series_test_trial",24228,"NS_5","7/12","8/16",0
"3jlB3p0ZI9RXNoCUWrzQ3p1ZYc","mBCcRbZBCB1gpDXuoEzrTdBXNm",1505843,124,FALSE,"number_series_test_trial",19907,"NS_6","152","165",0
"3jlB3p0ZI9RXNoCUWrzQ3p1ZYc","mBCcRbZBCB1gpDXuoEzrTdBXNm",1517467,125,FALSE,"number_series_test_trial",11618,"NS_7","10","43",0
"3jlB3p0ZI9RXNoCUWrzQ3p1ZYc","mBCcRbZBCB1gpDXuoEzrTdBXNm",1532123,126,FALSE,"number_series_test_trial",14652,"NS_8","8900","8900",1
"3jlB3p0ZI9RXNoCUWrzQ3p1ZYc","mBCcRbZBCB1gpDXuoEzrTdBXNm",1556971,127,FALSE,"number_series_test_trial",24843,"NS_9","16/122","12/16",0
"3jQYQ831Xlb9ParmuzyQKinSnh","sQJBHwbwwjRqJyIQlBBwd3JDd9",3541036,1016,FALSE,"number_series_test_trial",19974,"NS_1","-2","-2",1
"3jQYQ831Xlb9ParmuzyQKinSnh","sQJBHwbwwjRqJyIQlBBwd3JDd9",3563802,1017,FALSE,"number_series_test_trial",22759,"NS_2","28","28",1
"3jQYQ831Xlb9ParmuzyQKinSnh","sQJBHwbwwjRqJyIQlBBwd3JDd9",3594808,1018,TRUE,"number_series_test_trial",31000,"NS_3","64","64",1
"3jQYQ831Xlb9ParmuzyQKinSnh","sQJBHwbwwjRqJyIQlBBwd3JDd9",3625813,1019,TRUE,"number_series_test_trial",30998,"NS_4","30","29",0
"3jQYQ831Xlb9ParmuzyQKinSnh","sQJBHwbwwjRqJyIQlBBwd3JDd9",3656818,1020,TRUE,"number_series_test_trial",30998,"NS_5",NA,"8/16",NA
"3jQYQ831Xlb9ParmuzyQKinSnh","sQJBHwbwwjRqJyIQlBBwd3JDd9",3686854,1021,FALSE,"number_series_test_trial",30030,"NS_6","160","165",0
"3jQYQ831Xlb9ParmuzyQKinSnh","sQJBHwbwwjRqJyIQlBBwd3JDd9",3717863,1022,TRUE,"number_series_test_trial",31003,"NS_7","39","43",0
"3jQYQ831Xlb9ParmuzyQKinSnh","sQJBHwbwwjRqJyIQlBBwd3JDd9",3747064,1023,FALSE,"number_series_test_trial",29195,"NS_8","8900","8900",1
"3jQYQ831Xlb9ParmuzyQKinSnh","sQJBHwbwwjRqJyIQlBBwd3JDd9",3776861,1024,FALSE,"number_series_test_trial",29791,"NS_9","10/14","12/16",0
"3kKYkngpDSzd8j4JO9Jcrv8k2N","8vZr9nSWdk5RWqR2M8qJYhnIHQ",6318260,1288,FALSE,"number_series_test_trial",6961,"NS_1","-2","-2",1
"3kKYkngpDSzd8j4JO9Jcrv8k2N","8vZr9nSWdk5RWqR2M8qJYhnIHQ",6323772,1289,FALSE,"number_series_test_trial",5509,"NS_2","28","28",1
"3kKYkngpDSzd8j4JO9Jcrv8k2N","8vZr9nSWdk5RWqR2M8qJYhnIHQ",6330388,1290,FALSE,"number_series_test_trial",6613,"NS_3","64","64",1
"3kKYkngpDSzd8j4JO9Jcrv8k2N","8vZr9nSWdk5RWqR2M8qJYhnIHQ",6355740,1291,FALSE,"number_series_test_trial",25350,"NS_4","29","29",1
"3kKYkngpDSzd8j4JO9Jcrv8k2N","8vZr9nSWdk5RWqR2M8qJYhnIHQ",6378428,1292,FALSE,"number_series_test_trial",22685,"NS_5","8/16","8/16",1
"3kKYkngpDSzd8j4JO9Jcrv8k2N","8vZr9nSWdk5RWqR2M8qJYhnIHQ",6409357,1293,FALSE,"number_series_test_trial",30925,"NS_6","120","165",0
"3kKYkngpDSzd8j4JO9Jcrv8k2N","8vZr9nSWdk5RWqR2M8qJYhnIHQ",6438142,1294,FALSE,"number_series_test_trial",28782,"NS_7","43","43",1
"3kKYkngpDSzd8j4JO9Jcrv8k2N","8vZr9nSWdk5RWqR2M8qJYhnIHQ",6469153,1295,TRUE,"number_series_test_trial",31007,"NS_8","8900","8900",1
"3kKYkngpDSzd8j4JO9Jcrv8k2N","8vZr9nSWdk5RWqR2M8qJYhnIHQ",6495567,1296,FALSE,"number_series_test_trial",26411,"NS_9","11/16","12/16",0
"3LRRXv5Icbu5QeYz1MF2LKqXUh","X7tkqtyGPeROiC8yXcFdFlrfke",6828651,1116,FALSE,"number_series_test_trial",13533,"NS_1","-2","-2",1
"3LRRXv5Icbu5QeYz1MF2LKqXUh","X7tkqtyGPeROiC8yXcFdFlrfke",6836933,1117,FALSE,"number_series_test_trial",8280,"NS_2","28","28",1
"3LRRXv5Icbu5QeYz1MF2LKqXUh","X7tkqtyGPeROiC8yXcFdFlrfke",6868246,1118,TRUE,"number_series_test_trial",31311,"NS_3","68","64",0
"3LRRXv5Icbu5QeYz1MF2LKqXUh","X7tkqtyGPeROiC8yXcFdFlrfke",6885770,1119,FALSE,"number_series_test_trial",17521,"NS_4","29","29",1
"3LRRXv5Icbu5QeYz1MF2LKqXUh","X7tkqtyGPeROiC8yXcFdFlrfke",6917197,1120,TRUE,"number_series_test_trial",31426,"NS_5",NA,"8/16",NA
"3LRRXv5Icbu5QeYz1MF2LKqXUh","X7tkqtyGPeROiC8yXcFdFlrfke",6947892,1121,FALSE,"number_series_test_trial",30693,"NS_6","155","165",0
"3LRRXv5Icbu5QeYz1MF2LKqXUh","X7tkqtyGPeROiC8yXcFdFlrfke",6979143,1122,TRUE,"number_series_test_trial",31246,"NS_7","41","43",0
"3LRRXv5Icbu5QeYz1MF2LKqXUh","X7tkqtyGPeROiC8yXcFdFlrfke",7010558,1123,TRUE,"number_series_test_trial",31414,"NS_8","8","8900",0
"3LRRXv5Icbu5QeYz1MF2LKqXUh","X7tkqtyGPeROiC8yXcFdFlrfke",7041826,1124,TRUE,"number_series_test_trial",31266,"NS_9","10/18","12/16",0
"3lvwGLVQnnbJ8hO61nAT5y6qdy","rHTreMZXQH4oUVwwC4JcgWsu08",2149359,268,FALSE,"number_series_test_trial",16870,"NS_1","-6","-2",0
"3lvwGLVQnnbJ8hO61nAT5y6qdy","rHTreMZXQH4oUVwwC4JcgWsu08",2163978,269,FALSE,"number_series_test_trial",14602,"NS_2","28","28",1
"3lvwGLVQnnbJ8hO61nAT5y6qdy","rHTreMZXQH4oUVwwC4JcgWsu08",2183118,270,FALSE,"number_series_test_trial",19127,"NS_3","60","64",0
"3lvwGLVQnnbJ8hO61nAT5y6qdy","rHTreMZXQH4oUVwwC4JcgWsu08",2213574,271,FALSE,"number_series_test_trial",30437,"NS_4","29","29",1
"3lvwGLVQnnbJ8hO61nAT5y6qdy","rHTreMZXQH4oUVwwC4JcgWsu08",2234431,272,FALSE,"number_series_test_trial",20850,"NS_5","10/10","8/16",0
"3lvwGLVQnnbJ8hO61nAT5y6qdy","rHTreMZXQH4oUVwwC4JcgWsu08",2258517,273,FALSE,"number_series_test_trial",24070,"NS_6","156","165",0
"3lvwGLVQnnbJ8hO61nAT5y6qdy","rHTreMZXQH4oUVwwC4JcgWsu08",2288529,274,FALSE,"number_series_test_trial",29992,"NS_7","52","43",0
"3lvwGLVQnnbJ8hO61nAT5y6qdy","rHTreMZXQH4oUVwwC4JcgWsu08",2313137,275,FALSE,"number_series_test_trial",24585,"NS_8","8999","8900",0
"3lvwGLVQnnbJ8hO61nAT5y6qdy","rHTreMZXQH4oUVwwC4JcgWsu08",2338702,276,FALSE,"number_series_test_trial",25562,"NS_9","10/16","12/16",0
"3p5indUn2ROHlINByZpdCvv22L","FrdINzQ9k2SDDPIJKcpajgJ0hB",1906951,424,FALSE,"number_series_test_trial",21329,"NS_1","-2","-2",1
"3p5indUn2ROHlINByZpdCvv22L","FrdINzQ9k2SDDPIJKcpajgJ0hB",1920329,425,FALSE,"number_series_test_trial",13369,"NS_2","28","28",1
"3p5indUn2ROHlINByZpdCvv22L","FrdINzQ9k2SDDPIJKcpajgJ0hB",1950145,426,FALSE,"number_series_test_trial",29809,"NS_3","60","64",0
"3p5indUn2ROHlINByZpdCvv22L","FrdINzQ9k2SDDPIJKcpajgJ0hB",1977292,427,FALSE,"number_series_test_trial",27140,"NS_4","29","29",1
"3p5indUn2ROHlINByZpdCvv22L","FrdINzQ9k2SDDPIJKcpajgJ0hB",2000947,428,FALSE,"number_series_test_trial",23648,"NS_5","8/16","8/16",1
"3p5indUn2ROHlINByZpdCvv22L","FrdINzQ9k2SDDPIJKcpajgJ0hB",2014777,429,FALSE,"number_series_test_trial",13824,"NS_6","166","165",0
"3p5indUn2ROHlINByZpdCvv22L","FrdINzQ9k2SDDPIJKcpajgJ0hB",2036966,430,FALSE,"number_series_test_trial",22182,"NS_7","22","43",0
"3p5indUn2ROHlINByZpdCvv22L","FrdINzQ9k2SDDPIJKcpajgJ0hB",2064605,431,FALSE,"number_series_test_trial",27631,"NS_8","8000","8900",0
"3p5indUn2ROHlINByZpdCvv22L","FrdINzQ9k2SDDPIJKcpajgJ0hB",2092726,432,FALSE,"number_series_test_trial",28112,"NS_9","10/16","12/16",0
"3rwyyQZIJVhQ382E1GzjzsCH02","JL9dwYwhx9pTtG4W6KiHJnWIXH",2601864,1280,FALSE,"number_series_test_trial",4635,"NS_1","-2","-2",1
"3rwyyQZIJVhQ382E1GzjzsCH02","JL9dwYwhx9pTtG4W6KiHJnWIXH",2604984,1281,FALSE,"number_series_test_trial",3117,"NS_2","28","28",1
"3rwyyQZIJVhQ382E1GzjzsCH02","JL9dwYwhx9pTtG4W6KiHJnWIXH",2607761,1282,FALSE,"number_series_test_trial",2772,"NS_3","64","64",1
"3rwyyQZIJVhQ382E1GzjzsCH02","JL9dwYwhx9pTtG4W6KiHJnWIXH",2614106,1283,FALSE,"number_series_test_trial",6342,"NS_4","29","29",1
"3rwyyQZIJVhQ382E1GzjzsCH02","JL9dwYwhx9pTtG4W6KiHJnWIXH",2626120,1284,FALSE,"number_series_test_trial",12009,"NS_5","8/16","8/16",1
"3rwyyQZIJVhQ382E1GzjzsCH02","JL9dwYwhx9pTtG4W6KiHJnWIXH",2639565,1285,FALSE,"number_series_test_trial",13441,"NS_6","120","165",0
"3rwyyQZIJVhQ382E1GzjzsCH02","JL9dwYwhx9pTtG4W6KiHJnWIXH",2655027,1286,FALSE,"number_series_test_trial",15456,"NS_7","43","43",1
"3rwyyQZIJVhQ382E1GzjzsCH02","JL9dwYwhx9pTtG4W6KiHJnWIXH",2666851,1287,FALSE,"number_series_test_trial",11818,"NS_8","8900","8900",1
"3rwyyQZIJVhQ382E1GzjzsCH02","JL9dwYwhx9pTtG4W6KiHJnWIXH",2680981,1288,FALSE,"number_series_test_trial",14124,"NS_9","12/16","12/16",1
"3s7pwEin2Eh4Vyk77sU0kjMWQw","GxmRouUWyjJMzX9fDCuuJQTOZM",2745103,1059,FALSE,"number_series_test_trial",7096,"NS_1","-2","-2",1
"3s7pwEin2Eh4Vyk77sU0kjMWQw","GxmRouUWyjJMzX9fDCuuJQTOZM",2750840,1060,FALSE,"number_series_test_trial",5731,"NS_2","28","28",1
"3s7pwEin2Eh4Vyk77sU0kjMWQw","GxmRouUWyjJMzX9fDCuuJQTOZM",2753998,1061,FALSE,"number_series_test_trial",3150,"NS_3","64","64",1
"3s7pwEin2Eh4Vyk77sU0kjMWQw","GxmRouUWyjJMzX9fDCuuJQTOZM",2761212,1062,FALSE,"number_series_test_trial",7208,"NS_4","29","29",1
"3s7pwEin2Eh4Vyk77sU0kjMWQw","GxmRouUWyjJMzX9fDCuuJQTOZM",2773300,1063,FALSE,"number_series_test_trial",12078,"NS_5","8/16","8/16",1
"3s7pwEin2Eh4Vyk77sU0kjMWQw","GxmRouUWyjJMzX9fDCuuJQTOZM",2793111,1064,FALSE,"number_series_test_trial",19804,"NS_6","120","165",0
"3s7pwEin2Eh4Vyk77sU0kjMWQw","GxmRouUWyjJMzX9fDCuuJQTOZM",2824119,1065,TRUE,"number_series_test_trial",30999,"NS_7","7","43",0
"3s7pwEin2Eh4Vyk77sU0kjMWQw","GxmRouUWyjJMzX9fDCuuJQTOZM",2840365,1066,FALSE,"number_series_test_trial",16236,"NS_8","8900","8900",1
"3s7pwEin2Eh4Vyk77sU0kjMWQw","GxmRouUWyjJMzX9fDCuuJQTOZM",2871369,1067,TRUE,"number_series_test_trial",30995,"NS_9","9/12","12/16",0
"3syxFOXIuC1xwML91acGWFgcXc","8MyMNHa6LKbASrrft1ziItpFxm",2559265,1131,FALSE,"number_series_test_trial",15921,"NS_1","-2","-2",1
"3syxFOXIuC1xwML91acGWFgcXc","8MyMNHa6LKbASrrft1ziItpFxm",2573274,1132,FALSE,"number_series_test_trial",14003,"NS_2","27","28",0
"3syxFOXIuC1xwML91acGWFgcXc","8MyMNHa6LKbASrrft1ziItpFxm",2593225,1133,FALSE,"number_series_test_trial",19949,"NS_3","69","64",0
"3syxFOXIuC1xwML91acGWFgcXc","8MyMNHa6LKbASrrft1ziItpFxm",2611842,1134,FALSE,"number_series_test_trial",18613,"NS_4","27","29",0
"3syxFOXIuC1xwML91acGWFgcXc","8MyMNHa6LKbASrrft1ziItpFxm",2642689,1135,FALSE,"number_series_test_trial",30844,"NS_5","11/13","8/16",0
"3syxFOXIuC1xwML91acGWFgcXc","8MyMNHa6LKbASrrft1ziItpFxm",2667312,1136,FALSE,"number_series_test_trial",24620,"NS_6","200","165",0
"3syxFOXIuC1xwML91acGWFgcXc","8MyMNHa6LKbASrrft1ziItpFxm",2698318,1137,TRUE,"number_series_test_trial",31003,"NS_7",NA,"43",NA
"3syxFOXIuC1xwML91acGWFgcXc","8MyMNHa6LKbASrrft1ziItpFxm",2709633,1138,FALSE,"number_series_test_trial",11311,"NS_8","8999","8900",0
"3syxFOXIuC1xwML91acGWFgcXc","8MyMNHa6LKbASrrft1ziItpFxm",2740637,1139,TRUE,"number_series_test_trial",31001,"NS_9","9/1","12/16",0
"3wJbrh511Zeogcw3PR1XdPIC58","JeCqWDwxYh4BhZjndPStHI8dtB",1534441,943,FALSE,"number_series_test_trial",25837,"NS_1","-2","-2",1
"3wJbrh511Zeogcw3PR1XdPIC58","JeCqWDwxYh4BhZjndPStHI8dtB",1552453,944,FALSE,"number_series_test_trial",18000,"NS_2","28","28",1
"3wJbrh511Zeogcw3PR1XdPIC58","JeCqWDwxYh4BhZjndPStHI8dtB",1583499,945,TRUE,"number_series_test_trial",31033,"NS_3",NA,"64",NA
"3wJbrh511Zeogcw3PR1XdPIC58","JeCqWDwxYh4BhZjndPStHI8dtB",1608037,946,FALSE,"number_series_test_trial",24508,"NS_4","30","29",0
"3wJbrh511Zeogcw3PR1XdPIC58","JeCqWDwxYh4BhZjndPStHI8dtB",1639083,947,TRUE,"number_series_test_trial",31034,"NS_5",NA,"8/16",NA
"3wJbrh511Zeogcw3PR1XdPIC58","JeCqWDwxYh4BhZjndPStHI8dtB",1663351,948,FALSE,"number_series_test_trial",24250,"NS_6","164","165",0
"3wJbrh511Zeogcw3PR1XdPIC58","JeCqWDwxYh4BhZjndPStHI8dtB",1688416,949,FALSE,"number_series_test_trial",25056,"NS_7","39","43",0
"3wJbrh511Zeogcw3PR1XdPIC58","JeCqWDwxYh4BhZjndPStHI8dtB",1719461,950,TRUE,"number_series_test_trial",31035,"NS_8","990","8900",0
"3wJbrh511Zeogcw3PR1XdPIC58","JeCqWDwxYh4BhZjndPStHI8dtB",1750507,951,TRUE,"number_series_test_trial",31029,"NS_9",NA,"12/16",NA
"3XPL5kcRPmPLXeJEj9r1DYsv2D","DMwUnjOKoULm37IqRXJdUjMzkG",4964026,1254,FALSE,"number_series_test_trial",9951,"NS_1","-2","-2",1
"3XPL5kcRPmPLXeJEj9r1DYsv2D","DMwUnjOKoULm37IqRXJdUjMzkG",4972031,1255,FALSE,"number_series_test_trial",8001,"NS_2","28","28",1
"3XPL5kcRPmPLXeJEj9r1DYsv2D","DMwUnjOKoULm37IqRXJdUjMzkG",4981520,1256,FALSE,"number_series_test_trial",9485,"NS_3","64","64",1
"3XPL5kcRPmPLXeJEj9r1DYsv2D","DMwUnjOKoULm37IqRXJdUjMzkG",5012527,1257,TRUE,"number_series_test_trial",31001,"NS_4","3","29",0
"3XPL5kcRPmPLXeJEj9r1DYsv2D","DMwUnjOKoULm37IqRXJdUjMzkG",5043533,1258,TRUE,"number_series_test_trial",31001,"NS_5",NA,"8/16",NA
"3XPL5kcRPmPLXeJEj9r1DYsv2D","DMwUnjOKoULm37IqRXJdUjMzkG",5073063,1259,FALSE,"number_series_test_trial",29522,"NS_6","156","165",0
"3XPL5kcRPmPLXeJEj9r1DYsv2D","DMwUnjOKoULm37IqRXJdUjMzkG",5104079,1260,TRUE,"number_series_test_trial",31010,"NS_7",NA,"43",NA
"3XPL5kcRPmPLXeJEj9r1DYsv2D","DMwUnjOKoULm37IqRXJdUjMzkG",5125522,1261,FALSE,"number_series_test_trial",21440,"NS_8","8900","8900",1
"3XPL5kcRPmPLXeJEj9r1DYsv2D","DMwUnjOKoULm37IqRXJdUjMzkG",5154761,1262,FALSE,"number_series_test_trial",29231,"NS_9","10/16","12/16",0
"3xwVTBI0H6OSdYOVfUxcXjQ2NE","rHNMYgJUfoMOw7AtvPHER9YWOr",25748769,1250,FALSE,"number_series_test_trial",8987,"NS_1","-2","-2",1
"3xwVTBI0H6OSdYOVfUxcXjQ2NE","rHNMYgJUfoMOw7AtvPHER9YWOr",25762012,1251,FALSE,"number_series_test_trial",13229,"NS_2","28","28",1
"3xwVTBI0H6OSdYOVfUxcXjQ2NE","rHNMYgJUfoMOw7AtvPHER9YWOr",25776373,1252,FALSE,"number_series_test_trial",14353,"NS_3","64","64",1
"3xwVTBI0H6OSdYOVfUxcXjQ2NE","rHNMYgJUfoMOw7AtvPHER9YWOr",25800213,1253,FALSE,"number_series_test_trial",23822,"NS_4","29","29",1
"3xwVTBI0H6OSdYOVfUxcXjQ2NE","rHNMYgJUfoMOw7AtvPHER9YWOr",25831225,1254,TRUE,"number_series_test_trial",30994,"NS_5","9/11","8/16",0
"3xwVTBI0H6OSdYOVfUxcXjQ2NE","rHNMYgJUfoMOw7AtvPHER9YWOr",25861227,1255,FALSE,"number_series_test_trial",29978,"NS_6","120","165",0
"3xwVTBI0H6OSdYOVfUxcXjQ2NE","rHNMYgJUfoMOw7AtvPHER9YWOr",25892246,1256,TRUE,"number_series_test_trial",31012,"NS_7",NA,"43",NA
"3xwVTBI0H6OSdYOVfUxcXjQ2NE","rHNMYgJUfoMOw7AtvPHER9YWOr",25912376,1257,FALSE,"number_series_test_trial",20111,"NS_8","8900","8900",1
"3xwVTBI0H6OSdYOVfUxcXjQ2NE","rHNMYgJUfoMOw7AtvPHER9YWOr",25936320,1258,FALSE,"number_series_test_trial",23930,"NS_9","12/16","12/16",1
"3XYhQntc258l40a9UeC96yBJzr","7iSXaaSe64Tl4kb1CYIgSyAyJq",3721524,1292,FALSE,"number_series_test_trial",13682,"NS_1","-2","-2",1
"3XYhQntc258l40a9UeC96yBJzr","7iSXaaSe64Tl4kb1CYIgSyAyJq",3728794,1293,FALSE,"number_series_test_trial",7264,"NS_2","28","28",1
"3XYhQntc258l40a9UeC96yBJzr","7iSXaaSe64Tl4kb1CYIgSyAyJq",3744280,1294,FALSE,"number_series_test_trial",15480,"NS_3","64","64",1
"3XYhQntc258l40a9UeC96yBJzr","7iSXaaSe64Tl4kb1CYIgSyAyJq",3768068,1295,FALSE,"number_series_test_trial",23785,"NS_4","29","29",1
"3XYhQntc258l40a9UeC96yBJzr","7iSXaaSe64Tl4kb1CYIgSyAyJq",3794088,1296,FALSE,"number_series_test_trial",26013,"NS_5","8/16","8/16",1
"3XYhQntc258l40a9UeC96yBJzr","7iSXaaSe64Tl4kb1CYIgSyAyJq",3825661,1297,TRUE,"number_series_test_trial",31564,"NS_6",NA,"165",NA
"3XYhQntc258l40a9UeC96yBJzr","7iSXaaSe64Tl4kb1CYIgSyAyJq",3839307,1298,FALSE,"number_series_test_trial",13644,"NS_7","12","43",0
"3XYhQntc258l40a9UeC96yBJzr","7iSXaaSe64Tl4kb1CYIgSyAyJq",3851778,1299,FALSE,"number_series_test_trial",12468,"NS_8","8900","8900",1
"3XYhQntc258l40a9UeC96yBJzr","7iSXaaSe64Tl4kb1CYIgSyAyJq",3866196,1300,FALSE,"number_series_test_trial",14410,"NS_9","10/14","12/16",0
"43vGYBdD3WcnyIXsnCDZz5msJ3","04o38h0pReFp5jyxS5tiIIPnCH",915194,693,FALSE,"number_series_test_trial",26550,"NS_1","-2","-2",1
"43vGYBdD3WcnyIXsnCDZz5msJ3","04o38h0pReFp5jyxS5tiIIPnCH",925291,694,FALSE,"number_series_test_trial",10082,"NS_2","28","28",1
"43vGYBdD3WcnyIXsnCDZz5msJ3","04o38h0pReFp5jyxS5tiIIPnCH",932844,695,FALSE,"number_series_test_trial",7537,"NS_3","64","64",1
"43vGYBdD3WcnyIXsnCDZz5msJ3","04o38h0pReFp5jyxS5tiIIPnCH",954418,696,FALSE,"number_series_test_trial",21567,"NS_4","30","29",0
"43vGYBdD3WcnyIXsnCDZz5msJ3","04o38h0pReFp5jyxS5tiIIPnCH",985446,697,TRUE,"number_series_test_trial",31014,"NS_5","4-","8/16",0
"43vGYBdD3WcnyIXsnCDZz5msJ3","04o38h0pReFp5jyxS5tiIIPnCH",1013759,698,FALSE,"number_series_test_trial",28284,"NS_6","156","165",0
"43vGYBdD3WcnyIXsnCDZz5msJ3","04o38h0pReFp5jyxS5tiIIPnCH",1024841,699,FALSE,"number_series_test_trial",11063,"NS_7","22","43",0
"43vGYBdD3WcnyIXsnCDZz5msJ3","04o38h0pReFp5jyxS5tiIIPnCH",1042241,700,FALSE,"number_series_test_trial",17389,"NS_8","8500","8900",0
"43vGYBdD3WcnyIXsnCDZz5msJ3","04o38h0pReFp5jyxS5tiIIPnCH",1073265,701,TRUE,"number_series_test_trial",31007,"NS_9","4/","12/16",0
"44vEiVAuS4DmjkjCtCvLGiymA2","5MU72OQbxm1WjPSXLxC3TCVtyI",3314962,548,FALSE,"number_series_test_trial",19180,"NS_1","-2","-2",1
"44vEiVAuS4DmjkjCtCvLGiymA2","5MU72OQbxm1WjPSXLxC3TCVtyI",3322584,549,FALSE,"number_series_test_trial",7617,"NS_2","28","28",1
"44vEiVAuS4DmjkjCtCvLGiymA2","5MU72OQbxm1WjPSXLxC3TCVtyI",3353587,550,TRUE,"number_series_test_trial",30999,"NS_3","61","64",0
"44vEiVAuS4DmjkjCtCvLGiymA2","5MU72OQbxm1WjPSXLxC3TCVtyI",3375978,551,FALSE,"number_series_test_trial",22387,"NS_4","29","29",1
"44vEiVAuS4DmjkjCtCvLGiymA2","5MU72OQbxm1WjPSXLxC3TCVtyI",3398102,552,FALSE,"number_series_test_trial",22119,"NS_5","10/5","8/16",0
"44vEiVAuS4DmjkjCtCvLGiymA2","5MU72OQbxm1WjPSXLxC3TCVtyI",3410135,553,FALSE,"number_series_test_trial",12027,"NS_6","160","165",0
"44vEiVAuS4DmjkjCtCvLGiymA2","5MU72OQbxm1WjPSXLxC3TCVtyI",3432995,554,FALSE,"number_series_test_trial",22855,"NS_7","40","43",0
"44vEiVAuS4DmjkjCtCvLGiymA2","5MU72OQbxm1WjPSXLxC3TCVtyI",3440794,555,FALSE,"number_series_test_trial",7794,"NS_8","9999","8900",0
"44vEiVAuS4DmjkjCtCvLGiymA2","5MU72OQbxm1WjPSXLxC3TCVtyI",3459224,556,FALSE,"number_series_test_trial",18426,"NS_9","12/16","12/16",1
"451n6pZI5GiN1qR4PbP6KGnLF2","osUC14pBPUNtXJFmECHaZJHyXS",1522021,1012,FALSE,"number_series_test_trial",4321,"NS_1","-2","-2",1
"451n6pZI5GiN1qR4PbP6KGnLF2","osUC14pBPUNtXJFmECHaZJHyXS",1525322,1013,FALSE,"number_series_test_trial",3298,"NS_2","28","28",1
"451n6pZI5GiN1qR4PbP6KGnLF2","osUC14pBPUNtXJFmECHaZJHyXS",1527583,1014,FALSE,"number_series_test_trial",2257,"NS_3","64","64",1
"451n6pZI5GiN1qR4PbP6KGnLF2","osUC14pBPUNtXJFmECHaZJHyXS",1534048,1015,FALSE,"number_series_test_trial",6462,"NS_4","29","29",1
"451n6pZI5GiN1qR4PbP6KGnLF2","osUC14pBPUNtXJFmECHaZJHyXS",1544583,1016,FALSE,"number_series_test_trial",10532,"NS_5","8/16","8/16",1
"451n6pZI5GiN1qR4PbP6KGnLF2","osUC14pBPUNtXJFmECHaZJHyXS",1557126,1017,FALSE,"number_series_test_trial",12539,"NS_6","120","165",0
"451n6pZI5GiN1qR4PbP6KGnLF2","osUC14pBPUNtXJFmECHaZJHyXS",1582811,1018,FALSE,"number_series_test_trial",25681,"NS_7","43","43",1
"451n6pZI5GiN1qR4PbP6KGnLF2","osUC14pBPUNtXJFmECHaZJHyXS",1594044,1019,FALSE,"number_series_test_trial",11229,"NS_8","8999","8900",0
"451n6pZI5GiN1qR4PbP6KGnLF2","osUC14pBPUNtXJFmECHaZJHyXS",1609022,1020,FALSE,"number_series_test_trial",14976,"NS_9","9/12","12/16",0
"45x40tJ4W8uTggU9u28Q43aWbQ","g4s59DhMxmTj4pwH7u3dRu9kWN",6239474,1132,FALSE,"number_series_test_trial",8891,"NS_1","-2","-2",1
"45x40tJ4W8uTggU9u28Q43aWbQ","g4s59DhMxmTj4pwH7u3dRu9kWN",6245496,1133,FALSE,"number_series_test_trial",6011,"NS_2","28","28",1
"45x40tJ4W8uTggU9u28Q43aWbQ","g4s59DhMxmTj4pwH7u3dRu9kWN",6256630,1134,FALSE,"number_series_test_trial",11125,"NS_3","62","64",0
"45x40tJ4W8uTggU9u28Q43aWbQ","g4s59DhMxmTj4pwH7u3dRu9kWN",6265512,1135,FALSE,"number_series_test_trial",8872,"NS_4","29","29",1
"45x40tJ4W8uTggU9u28Q43aWbQ","g4s59DhMxmTj4pwH7u3dRu9kWN",6294061,1136,FALSE,"number_series_test_trial",28540,"NS_5","10/17","8/16",0
"45x40tJ4W8uTggU9u28Q43aWbQ","g4s59DhMxmTj4pwH7u3dRu9kWN",6325074,1137,TRUE,"number_series_test_trial",31002,"NS_6",NA,"165",NA
"45x40tJ4W8uTggU9u28Q43aWbQ","g4s59DhMxmTj4pwH7u3dRu9kWN",6356093,1138,TRUE,"number_series_test_trial",31006,"NS_7","50","43",0
"45x40tJ4W8uTggU9u28Q43aWbQ","g4s59DhMxmTj4pwH7u3dRu9kWN",6376438,1139,FALSE,"number_series_test_trial",20334,"NS_8","8900","8900",1
"45x40tJ4W8uTggU9u28Q43aWbQ","g4s59DhMxmTj4pwH7u3dRu9kWN",6403559,1140,FALSE,"number_series_test_trial",27110,"NS_9","12/16","12/16",1
