"session_id","session_restart_id","time_elapsed","trial_index","custom_timer_ended_trial","rt","Q1","Q2","Q3","Q4","Q5","Q6","Q7","Q8","Q9","Q10","Q11","Q12","Q13"
"016SsHMbVS1ns2Qxcmk4hHRgSH","cTUFCC0UsYwePsDP5ScoGOXR9P",4886629,860,TRUE,301012,35,30,25,25,20,3,27,40,60,NA,NA,NA,NA
"02QWkclNXRGICktZzGbALKgOXn","0LA5VsQ6bM4SkkRpi1z7Y9kiys",249922,12,FALSE,225766,35,15,25,25,18,3,25,40,10,3,2,2,5
"08JvGfUwcNXzbgM6Uw9OTeVzMT","PJuN6vwRcRa1Fzq9fDjFSIoeFl",4937967,881,FALSE,210549,35,15,25,25,20,3,25,40,20,3,4,2,50
"09Sw3t0YLj302lra5gkQlLEMwE","tSVr1jFY0oLEEbRYQciHBJ7oTh",1993010,182,FALSE,258929,35,15,24,25,20,3,24,40,20,3,4,2,5
"0bjDzRkHTDdAUc8E3JPJxkyVYK","zsBfeBSdE7vxtgIbfVOykEXPpx",3487266,1192,FALSE,241334,35,15,24,26,20,3,24,40,20,3,4,2,5
"0d3KNfQfPK5yzhZRUP0U1M47yp","RSiqpywAKT7f8wv1Igns83P72Y",995254,383,FALSE,172243,35,10,25,25,20,3,25,40,20,1,2,2,50
"0DbPC3sk9u2UC1A1OXELSFZqk4","c2GIWn9emVoP44rKyARiF4oCTC",1924074,162,FALSE,203001,35,15,24,25,20,3,24,40,20,3,4,2,5
"0f9yzMMlcjFihBIVm43sUQOq5N","qhl8ukQCrx6MDit5YdxfmugO0f",594707,36,FALSE,192299,35,15,25,25,20,3,25,40,20,3,4,2,5
"0G6inFq7heMyKnrLpeL72Oc0x2","yAgyeF8QHnbs6LcNXkA9cjYtRu",2064482,168,TRUE,301009,35,15,25,25,20,3,25,40,20,1,2,2,5
"0iWhbvxyvGhSXx6Vwq7cOzsX5P","X1rytSlURdcGMLSBZf6jwNoXUe",19944116,130,FALSE,296893,35,15,24,25,20,3,25,40,20,1,4,2,5
"0jtfnPUyl2KfOkrH6EawIfcZrU","stUKpNW3Mk2vv5Oc72ghXZyNnT",3023214,858,FALSE,187682,35,15,25,25,20,3,25,40,20,1,2,2,25
"0lONQy80IYyb7sgqnX55uzWGpk","OM503ekApHW2kf5At0wdsuS96N",1529200,176,FALSE,170797,35,15,25,25,20,3,25,40,20,3,4,2,5
"0MRkDC9OIj6neflPX1YCGTovn9","vAE6zLm4ydsdwHl2dEf8dPgmJl",106742349,1227,TRUE,301311,35,30,25,25,20,3,NA,40,20,2,2,2,NA
"0muiSaKLm83R3IxO8bShtR5IvR","hjDpOypaLa3CKrAaFVihmBzufm",5041401,1246,TRUE,301009,35,75,25,25,20,2,NA,35,65,2,3,1,NA
"0nvFj8VxK1Hq2p7OWf9G7eoPjS","q7kGXvwxXjffBfPSfqAO1WnxIh",4399948,1117,TRUE,301002,35,15,25,25,20,3,25,40,20,1,2,2,NA
"0o9HmsRAeWW6hOa4qWA3aiYgGk","D7gyRawJwSofJEPuvjB5TvoiYI",322924,12,TRUE,300999,35,15,25,25,20,3,24,40,20,3,4,2,NA
"0oOc4trw2RuVUTJzHPoOiPutvD","haWvNox37toJMmbkUs8RvGxTDT",4971299,1242,TRUE,303129,35,15,45,20,20,3,25,40,NA,NA,NA,NA,NA
"0PGSj6vBGEWDIv52s0FmG8v3dC","mrqZgpS24kXVNkIjRl0NcP5Xwd",4539124,1216,FALSE,281104,35,10,25,25,20,3,25,40,20,3,2,2,50
"0qhwNPBkRLnN5VgpoCWSHQbZNZ","sBEJxVGV01L9RGc229FDgMXRkN",2258688,265,FALSE,219006,35,15,25,25,20,3,34,40,20,3,4,2,5
"0wxHPgNbpBWYb8kVt0LHMMWnKG","NoWCAOszI0E1XGFTQoOlG11fOs",4139231,1259,FALSE,191629,35,10,25,25,20,2,23,40,20,3,4,2,50
"0ZtepTI67Bd7sjifgxAlqs79Ne","5Fa64v0SjRagjK6tdM8cjSncoQ",6356340,461,FALSE,201242,35,15,25,25,20,3,24,40,60,3,3,2,5
"1aCQXzMxvKGN7rhH120pTns7ly","IH4QJEi1ebOx3cB20smzDNeipQ",371386,21,FALSE,211815,35,15,25,25,20,3,25,40,20,1,2,2,5
"1ALaeVQQ86lCBbzEY0ygIqiVPO","YHaDajV0mJSAVxCpsiQXcuPOdA",3768923,771,FALSE,287040,35,5,25,25,20,3,24,40,20,3,2,2,5
"1brBjF9gjcWQS6VPzrzn9fg0Zt","XmVFOHxubpWC1URPBv8dA2wHa7",12094277,857,FALSE,219839,35,15,25,25,20,3,25,40,20,3,2,2,5
"1ceGfBKQFjbWwypDqcxWsFk6uK","OpmC6zOsOAHd0fgFVbFdFEc7wZ",1802681,972,FALSE,273657,35,15,25,25,20,3,25,40,20,3,2,2,50
"1GOJzZnrmuKpj5ARHg3lnbX8VY","qeppTpr0zSJIXUA6usxeHfGCml",3304789,1202,TRUE,301002,35,10,45,45,20,3,25,40,20,2,2,1,NA
"1HOK6QspxGl8qgK7ewjz5BK80U","hQZCd7IpiTUaQn6aYYxy6F9kfu",370229460,222,FALSE,137890,35,75,25,25,20,3,24,40,20,3,2,2,5
"1hz9aEcPKuUVxzeWXU0DKHJOTo","CeJ2tQ47Cs6XJwTUtprKAVQ6Y3",3846864,1104,FALSE,184769,35,15,25,50,20,3,25,40,10,3,4,2,5
"1JdcraYIvlFTeFgt9LeNqWf2GH","yGGpXKcjFpFCsbLk0Px3QgSz8h",3695125,857,FALSE,214785,35,15,25,25,20,3,25,40,20,3,2,2,5
"1Mj9fbNoVRFtG3zHNlw3cAngFs","REknCGD7Ax1LKoGaLFjD3VrNj1",1118990,20,FALSE,286227,35,15,25,25,20,3,25,40,20,3,2,2,5
"1OzveigfU1iFItrM6WmJ1HkUNY","bjfpF9N2C8BkA0aOG7zwJWPUri",1869989,118,FALSE,260355,70,30,25,10,20,3,25,40,20,3,2,2,50
"1TuvpkmKs8aFElCAUlBddz9xEb","5Cl3bkxiQeDFVRcNbYSTgK2aWG",5145696,1254,TRUE,301001,35,NA,25,25,20,2,25,40,60,2,2,1,5
"1uZPCXhrAQUz9u3bnwbSu2f9OW","KTye7PCG4vs2l3X0cy0GXmQ4iR",4086971,1234,FALSE,204547,35,15,25,25,20,3,23,40,20,3,2,2,50
"1yyTDdpAKpAAydh7Rncn6Zvxhs","UQLJh5NHyDy3zSvTNMHT5yOSON",1009183,401,TRUE,301000,35,15,25,25,20,3,25,40,20,3,4,2,NA
"1ZFtLAHgL9wLhdzIYquWED4PQ8","VMFsU12H16PGyZBtzOabHhUizB",1083671,94,FALSE,279505,35,15,25,25,20,3,24,40,20,3,4,2,5
"25bD8vGu2cCVsPkfhZmCy6xK4t","fjuqnDvz9v2uvRva5a22Ls7njK",1811974,172,FALSE,251605,45,15,30,30,20,2,25,30,70,3,2,1,5
"26KL9Q0Jbtt6iGSpAKazbt3JhO","gDfPNy4qcbW4vLbBur1HI212fD",2109551,692,FALSE,193914,35,15,25,25,20,3,25,40,20,3,4,2,50
"27YwGn0TiDrlXCLxWsUMAcIt45","toW8monWodtY25OuKcPi25EKzA",222039,12,FALSE,153124,35,15,25,25,20,3,26,40,20,3,2,3,50
"2AA93UwCDg76IqO8nWIGe29q3f","lh4pSsgfWqYF9UuWEqnuinYfm8",303052,12,FALSE,236998,35,75,25,25,20,3,24,40,20,3,4,2,5
"2B8aRYS8XLGxLWy0alFAxZOteH","hqPXC9PDhAOi0uTT0BgHwET8ed",20470442,1261,FALSE,204493,35,15,25,50,20,3,25,40,20,3,4,2,5
"2c4yipde1kQFIRgdbcH0lZrkDB","gQX0CndTxISJqfxs4TJZSJs7v1",472065,21,FALSE,299493,35,15,24,26,20,1,25,40,20,1,2,2,5
"2d8DQPFYsBDFeDwNnYbm1WMThN","3spu556xygORPMao8GnXauKDKT",1713293,167,FALSE,232290,35,15,24,26,20,3,24,40,20,3,4,2,5
"2EgIpyLmeCAoeePQ81fpFLNhi9","XNOO1yB3nfkJvgTjTOWa71T46E",1574838,151,FALSE,238747,35,1525,25,25,20,3,25,40,20,3,2,2,5
"2HTOse3Z1zDR7tTs6hmh4LJDZU","M7TOH6YkQUfwDDZRCZqGZEut4X",1739126,682,TRUE,301539,35,15,25,25,20,3,24,40,20,NA,NA,NA,NA
"2i7132kcPcxEmc2hecMr2CbwsY","vyYkQYoT5SwJsD1FcweylsHLT2",5126368,298,TRUE,301002,35,15,25,25,8,1,24,40,20,1,2,2,NA
"2IAPahTER2q65V8labGmLd9VyB","oADUlkMwnXlxJPguEU1lLfcpSE",2436809,1074,FALSE,177551,35,15,25,25,20,3,24,40,20,1,2,2,50
"2Ibpve15BFt7T07Lh0Cs6sMquO","dwaqbKw9qiggvTrlqWGpegBsQK",4400136,1242,FALSE,164393,35,15,25,25,20,3,24,40,20,3,4,2,5
"2kFcDYk61xgzZHmkFH8bb2RKup","A6tS0Bd4QKDKOhutxeiQWBECZR",5040712,1243,FALSE,207377,35,15,24,26,20,3,25,40,60,3,4,2,5
"2KRWlhry8hXugjECoOimhKHyu5","g9ktcU1YiHKJUwwiVjKJaVBu0k",1639545,533,FALSE,187337,90,15,25,50,20,2,26,40,20,3,1,2,5
"2NCG8KpHpVcw40nODxbJ3TWyM0","aqypAjwHYQZ5wN997oGtnVtUdD",1796709,1076,FALSE,149398,35,5,25,25,20,1,25,30,40,1,2,2,5
"2oVIiZjinndSKhVOAfMCb8PUJv","tTLn4qsFlqDTziOU5BKr1ySiJ4",2197723,1115,FALSE,263524,35,15,25,17,20,3,25,40,20,3,2,2,50
"2p2RkuvbMlDmcQO7ALZNcy7BVB","9oqcph6pnVaJOkbP7ulAngQboY",470306,27,FALSE,251100,35,15,25,25,20,3,5,40,20,2,2,2,5
"2pImB3BA3YLxVN9QOEhOPSR55b","xwhPZjGhHy0iDwCs4Vh0sb9FBG",1424925,52,TRUE,301001,35,15,25,8,20,3,24,40,20,3,4,2,NA
"2RtPMbFJ5EI1NUfXYKVCpd70Tv","1h2WeKPyiYPcIVL4H3o0bOXxCO",3217353,231,FALSE,293630,35,15,23,27,20,1,25,40,20,1,2,2,50
"2s7L6hjw0aVfIiOHqEf92R92CI","kLLIRYri4E9sParEwifQ3cDSd4",2164468,390,FALSE,279615,35,15,25,25,20,3,24,40,20,3,4,2,5
"2tMJcwUb0jCy9PamYQNgCCBCdA","FR0JMuBDrFlKrLRI6tj87TY9px",2828931,664,FALSE,241009,35,5,25,25,20,3,25,40,20,3,4,2,5
"2UxadonClxNGbWsfVWxyUFWlXD","GHzAm81BiLMQYbsByWM6DE5wNu",2779131,1015,FALSE,212840,35,15,25,25,20,3,25,40,60,3,4,2,50
"2v7UmJHwr1oTn6hdKFwkrsAxE8","2Q6l7iQ828VEzdYYWlbgMTkQDC",3919165,1264,FALSE,214492,35,15,25,25,20,3,25,40,20,1,4,2,5
"2wH3MZsxiO7fVJUpn4o7wiiqMP","fGkXx1400iTNbwrxjdStAqvENn",5634951,662,FALSE,213069,35,15,20,30,18,2,25,40,60,3,2,2,60
"2X64KhtgQiPec1qIy7DrVmmYiZ","Zrbu3sLt5nAiclrIJ5HyMLQnVG",5379595,1163,FALSE,207352,35,15,25,25,20,3,25,40,20,3,2,1,50
"2zZ4xnXCGxtAkFktuCMrgE3cYR","Q4y6LZNYAr1seXuXn3JJgYeXYF",2121760,158,FALSE,270356,35,15,25,25,20,1,24,40,20,3,4,2,5
"31Bnid4HBnnPxo4LhagKetLugi","PWY4Ak8wHUXGkU0Ke6607Vw8IN",1200475,368,TRUE,300999,35,15,25,25,20,3,24,40,10,3,2,NA,NA
"34XyeAHTvluzgZMDEBfnsjLcFO","jM8bNNDRlrwLp9hwmNPBucJcT2",2773774,1105,FALSE,199682,35,15,25,25,20,3,25,49,20,3,2,2,5
"3bgOaJAJh5EkiEQMcsw5BHgiTH","FcMuT7kYzZCoVtHsK5tIAiW4AB",4499344,853,TRUE,301002,35,15,25,25,20,3,25,40,20,3,4,NA,5
"3cfwf1AC3xWQunoJYhcfQwZqFH","creqVgj7Q8iJdkk81jr5rAi7IV",363107,12,TRUE,301006,35,15,25,2520,20,3,25,40,20,3,NA,NA,NA
"3Dd19KRBYgJfCukymF2AKtuBXi","v4HAQvKAbdYrx7dPYsqw2cL0L8",4222596,1104,TRUE,301018,35,15,23,10,20,2,25,40,20,4,4,2,NA
"3DkYm4TofR4RvQQmb7OLo9CNbF","otGUgWVukP1kIoHNgCZfESMjNQ",3973276,1225,FALSE,206808,35,15,25,25,20,3,25,40,20,3,2,2,5
"3e1AHUBhyTi6cvBHTNGVFxR0Wf","ApL3fd2q2zRPXm5MYAbukUD7Py",404676,21,FALSE,220077,35,15,25,25,18,3,24,40,20,1,2,2,5
"3fy3gRAl3eiE2HMI7PmdDZy8CG","ILoy5Qgw9XAmzp2tzaUdfAmGYZ",1129113,153,TRUE,301004,35,15,25,25,20,3,25,30,70,2,2,NA,NA
"3juz0LEONWYnmNZOFxavjkW1ht","xXiH3hbZhnUhsNb4RWopk9NtoW",33016784,266,TRUE,300999,35,15,25,25,20,3,25,40,60,1,2,NA,NA
"3kJJzZtol0RQo4ede16dZrzoS3","aEJFL88RPlFU7DZsvnfMc42Is6",3683610,1115,FALSE,218091,35,15,25,10,20,3,25,40,20,3,2,2,5
"3OGQvgMnwdnpelDPA0ENep78qH","MkFazWafXqHxTIVSKutmOdK3eN",1035401,382,TRUE,301004,35,15,25,25,20,3,25,40,20,2,2,2,NA
"3p6IFCYbicUYdDQ4T7ee4eJiyc","yl3e8E0S62x4HsaF86YIzm1Jhy",2868753,1212,FALSE,172400,35,15,25,25,20,2,32,40,60,1,3,1,5
"3pzalxp9KcZX7CGnBMdr6DmvlP","awu1rF7vI8v4FGyvpnVINcuWyb",5151455,1140,FALSE,157063,35,15,25,25,20,3,24,60,20,1,2,2,5
"3rr1cStimAPqFnd8LcXKZVVO6f","F54plz7w75xd5Mj45iul7TmeKw",355536,12,TRUE,330006,35,15,25,25,20,1,25,40,20,NA,NA,NA,NA
"3StxTMifV67bsimI06lGXeTcKV","v00dissXbzc88HyqOOY2VpFqhb",5741154,871,FALSE,292427,35,152,25,25,20,3,25,40,20,2,2,2,26
"3V9uIE7do09SYtI6Z7NRfGGabM","T8xIbZhMgVIUn3DZjTzPX2NjFO",6267284,1249,FALSE,148858,35,15,25,25,20,3,25,40,20,3,4,2,5
"3z3XA3JViOlw6HQRLB7B3ySu5K","JvBzLh60kVqBOdjnqnIo2ESAxx",6555528,1244,TRUE,301000,35,15,25,25,20,3,25,40,20,1,2,2,NA
"42ajvjIRMPNBOwSqlRBHfNrnUP","F7nEWmVc7w7AlCLYPHLYlhwbIw",3367922,873,FALSE,269385,35,15,25,25,20,3,24,40,20,3,4,2,50
"46j5CHteYEut0nqwQKTAasWUI2","ZzwLnHOW0xTpzyjq25QCe5PjMw",3467596,1240,FALSE,149921,36,15,25,25,20,3,24,40,20,1,2,2,5
"47VX9XocCOvQneVreGOHXxevSX","NeD9XHWw3geXuEXc9rNq1IQlrD",332361,12,TRUE,301001,35,15,25,25,20,3,20,40,20,3,3,NA,NA
"48eCkfTae11g52AiMMOxllaekp","UlkMz1S4MgGQipKwwyKLCi7cBF",2099426,709,FALSE,179437,35,15,24,26,20,1,24,40,20,3,2,2,5
"48uz5zLcv58z7fngAkZ1khlTAv","LxEQ8GwlZPgvJNVNHd1nlMDT5x",5830470,450,FALSE,136584,35,15,25,25,20,3,25,40,20,3,4,2,5
"4a7lego3l51wEevuleR6ENKpuS","eftjQeKyJaxmtASYOVnj65QSiY",231011,12,FALSE,208835,35,15,25,25,20,3,25,40,20,3,2,2,50
"4AOgJHkNKGiyIvn5eB8QMyH2nO","JlnZoJkAm8fPY4RKTzkbEy2poY",4913849,1243,TRUE,301000,35,15,24,26,20,3,25,40,60,1,2,2,5
"4DMTFy14TramBn7JJgqGSbrbFX","asjnM9y9D7BAaHC3sfMPif80fo",651401,438,FALSE,125918,35,15,25,25,20,3,24,40,20,1,4,2,5
"4KEjr1UWTKcSuQVedm6VlSNNKf","ifpRFXbWaGEztFjwg4Qckqwzds",2492637,42,FALSE,259109,35,15,25,25,20,3,26,40,20,1,2,2,45
"4kwTFFW7issbpFjUErUhUVadMj","28LTUQ0GTqZK08Qca3pIftSC5v",1993737,176,TRUE,301001,NA,NA,NA,NA,NA,NA,NA,NA,NA,NA,NA,NA,NA
"4nOa9XoKpT43KuXOoyEwpvMqoB","ZgfPcU0lzga0Aa1Wco0uWr8GRL",3960083,267,FALSE,298399,35,15,25,25,20,3,24,40,20,3,4,2,5
"4Sq3cYbABKQHHBm70mCFc3iMF5","U4RrKbe4n54rA6aarai2nSG2ey",3603861,820,TRUE,301002,35,15,24,26,20,3,26,40,20,3,2,2,NA
"4ttQWLCj7crHQPx22YkLaLYnZa","eHwVQxZ9yI8JX1Pg3ZAhp2jaX3",3568785,286,FALSE,297603,35,15,25,25,20,3,24,40,20,3,2,2,5
"4v1ItFGeUNXhIXMPOahut43c3D","Bc47sSMIoSSzqnx7T3Toc35vqn",291978,12,FALSE,190653,35,15,25,25,20,3,25,40,20,1,2,1,5
"4v2vBsgIWHAZrBBbaXCNuD9XNG","t74i84K37GK07LvfMYtMebdSR6",7708485,1244,FALSE,275977,35,15,25,25,20,3,25,40,20,1,2,2,5
"4vs9WQi5qqqEOArRXQ5Zax1ExG","FDrTyyntTYPuREgXodfATJq1O4",179466969,1176,FALSE,174443,35,15,25,25,20,3,23.5,40,20,3,4,2,50
"4xD1S2hKFZRKfnyCl7gEjET53h","Ur7PoFj2BnWYBAG38ginU7Uxc6",2992455,866,FALSE,248047,35,15,25,25,20,3,24,40,20,3,4,2,5
"4Xjnc2biS3KBg0r9hduthXeRJW","jlQxgIoPSPKGHGEXV5zd8FXrvS",2734515,231,FALSE,219632,35,15,25,25,20,3,25,40,20,3,4,2,5
"4YY4VgQpQUT7XI8wSdEhkK7n8X","ElQxyhI4UPlUmH86u26Z8wBM0T",2635273,1233,FALSE,91521,35,10,25,25,20,3,25,40,20,3,4,2,5
"51egDHD2r1LQhu4Qg9hzDtGJgD","MwJ86gGpJIOVr9DcHYt9vaUAii",3184880,1115,FALSE,166800,35,15,25,25,20,3,25,40,10,1,2,2,5
"52YXud0Bqte11TiBcsX8mneCWt","hhh8u0aahJvDqN7YizThQvXp3Y",5742723,1216,TRUE,301002,35,15,25,25,20,3,24,40,20,3,4,NA,NA
"53L5H9pp7XehsYC3rE050tF3j8","IdVZzfQbdh3m4ihrNIcTG7S3yO",4109809,1018,FALSE,182068,35,15,25,25,20,3,24,40,20,3,4,2,5
"5DtJjG6qCScAYie44TvPwt7cLI","EjojZqV3p0WtPk2EsTLplsl64Z",1929128,71,FALSE,283124,35,5,25,15,20,3,25,40,60,3,4,2,5
"5EB7i7qgwGEmOZZzi90rgZvnM3","0sEKOxy41pcLY9F4UYVLXofIcd",6215410,1243,TRUE,301003,35,15,25,25,20,3,25,40,20,3,4,2,NA
"5eBMwOLtbLdc236rQtEs4aUi2M","qSuPLU9XrtDoNZdBIbfVTVDuL2",3694352,575,FALSE,249704,35,15,25,25,20,3,24,40,20,3,2,2,5
"5EdRPYgtEf7yjz69xfoUCWZbDG","LoaVXiIyfoblqTtg66vmfIJy7f",3207742,173,FALSE,290444,35,10,25,25,20,3,24,40,20,3,2,2,5
"5eI07HnYh7wDAtGEW1k99Lhb9s","muMSK6nKGMwfRSsKA4Ap42h0Ev",4610607,1256,TRUE,301000,35,15,25,25,20,3,22,40,20,3,2,NA,NA
"5hrsRhnqwI46ywxbQ5N6yKNXZL","ggLsHpvY1TAS5i9pBIhmD7N1Gm",15301518,1145,FALSE,210971,35,15,24,26,20,3,25,40,20,3,2,2,5
"5Imk5JDFcQADnpEkUV1xCXLZ5T","3jIuOrifBjiwMo9GZV1JhHjKrw",10040770,1256,FALSE,296173,35,15,25,25,20,3,25,40,20,1,2,2,5
"5jCA0DTYrHaWMK2QfUeF1mtbW9","Y0vGw06BcA98l3b9ZXVmbeIwrx",7186335,820,TRUE,301001,35,10,20,30,20,2,25,40,NA,NA,NA,NA,NA
"5jqnnt8AkNg9sxYVdEvPYMQ62u","1Dvd1cQkepgTAOuKUe0uPJHGAb",4463579,1256,TRUE,305345,35,15,24,26,20,3,24,40,20,3,4,1,5
"5NbYthY4uj3sgRjZNACiPl1Fz8","DiUEwwxKmN5YSkvm3uUk6ReZ3H",3329553,843,FALSE,246139,35,752,25,25,20,3,25,40,20,2,2,2,5
"5p0CPHRH7ivOoH3ESSFsPJctb6","HMQoTC64zpyJSkBMHVTFwkxtSp",263544,12,FALSE,246258,35,5,25,8,20,2,25,40,20,1,2,2,70
"5PRTYvWvvGaKrC40ZxQZHCJUwt","YQwsYeCJb4umSn55VPBBT8DsDh",3222806,1093,FALSE,294381,35,15,25,25,20,3,25,40,20,2,2,2,8
"5Q0Yab55ZyTkrI9GqBJcywjHF3","MmBuGgqek1CDMJ92iyFtgEJAc6",3188234,1029,FALSE,219760,35,15,25,25,20,1,24,40,20,3,4,2,95
"5RgwjomyG6v004L1eTzvBPgLfC","1AcqVWgqqIfEw89rs5n7JBkFul",1859655,671,TRUE,301007,35,15,25,8.3,20,2,25,60,NA,NA,NA,NA,NA
"5SDhi2tbdhTAW1kxT83ScggiI4","3Pf7QjGjRGnwspsCVgZnnBa18s",2434308,468,TRUE,301000,35,15,25,25,20,3,25,40,20,3,3,3,5
"5tYWdaOmGDyaUhLlN5Bk63kFLI","rrZMorEt7r5zeFXIrDbXIi0x3N",336620,21,FALSE,205582,35,15,25,25,20,1,26,40,20,1,4,2,5
"5urfj5qY9KkLrHdIAoA9qLuzCB","do1NJgfXv6YhycPy9kAs2kQ2Bg",281054,12,FALSE,255097,35,15,25,25,20,3,24,40,20,3,2,2,5
"5v0shu1TXvcLAq6XkkWObpTxVv","UOZSm65zJVmmHDM1vXsJxd2Yy8",4170692,1069,FALSE,272584,35,15,25,25,20,3,24,40,20,3,4,2,5
"5ybeN6VNzHGX8nFw5gMPiwIl0R","dmsnNvufD5tsLe1nmX4sH91p2r",2094741,1004,FALSE,173826,35,15,25,25,20,3,25,40,20,3,4,2,5
"5zJq7GS1asQAvQoLLof0K8pKru","PCDmGHrjz6qcn1jV7360IIPs0C",2861696,1084,TRUE,301016,35,10,25,25,20,3,25,40,20,3,2,NA,NA
"66CDpWtf64sUmQsfxG5zYDXIuI","QdLVtkegDqzoWF4XsOgBiNX4SW",989145,54,FALSE,259497,35,15,25,26,20,3,24,40,20,3,2,2,5
"68mBwIupnteIzRtKsaLLVjXwRp","x1ypvBHDrnyCYuV0C65fG2UPi2",2929641,1096,FALSE,218379,35,15,25,25,20,3,24,40,20,3,2,2,5
"69sCUvVktIVPFuv9n2mJthlPdm","RVfCYB70DNc6EH9BvDr61SiYRA",289225,12,FALSE,272155,35,15,33,33,20,3,25,40,60,3,2,2,5
"6a7grifZTCWtkKHONY4ZBFNmNK","KmxKa6hs21bu1WmZ1csTuMw4jp",2536364,1045,FALSE,251049,30,15,25,25,19,4,24,40,20,3,2,3,5
"6bFa7I9jlg64chw4N8A7sVmMQ3","xLrorqzZizBBADdaTvT8B0tiTI",9503485,396,TRUE,301002,35,15,25,25,20,3,25,40,20,2,4,NA,NA
"6Fhr7EYTgZahid47o4KE893siL","rctnbGY7yYRqmzZJa9fX4U2EL9",4157488,1222,FALSE,260777,35,15,15,5,20,3,25,40,20,3,4,2,5
"6HcgsHUNyHAvOPjDbj3z1QO6x0","urnoUfxCysMmMrSyEkMKTEslD8",220657,12,FALSE,194584,35,10,25,25,20,3,24.5,40,20,3,4,2,5
"6hDoD3dNQwPPXLhlvl7ICsClrG","UjYmaI5rpmFErp9XwWaW38NJsv",3850572,678,FALSE,214689,35,15,25,25,20,3,25,40,60,3,2,2,50
"6K1LGFH6tXIN9FR4jZ7NDJ4Mmx","TuBcDyJRdxMcUERllWhGQGGUv5",984871,445,FALSE,208565,35,15,23,27,20,1,25,40,20,3,2,2,5
"6kYVg7CmiM211jXzzoV5C2DYKj","TuTTCpjLQQu4F6bqD3lSsrnhg6",4407619,172,FALSE,255835,35,15,25,25,20,3,25,40,20,1,4,2,50
"6Miu1B5YnB4oBvORD2tBPHc5zo","6kQbBr73bGnwKx30MVv7QYhwlo",1919878,104,FALSE,232075,35,15,25,25,20,3,25,40,20,3,2,2,5
"6nhpMpKhlGeE8HdJUpyY9fWfnt","PENXUzqSAcS80m6SXt4ZDhhLWZ",333358,12,TRUE,300999,35,30,25,25,200,2,25,40,60,NA,NA,NA,NA
"6PiYKQeGAB1dR4f9dvUVzumRkv","5DcyTs2B5IvdLvbg8F0liuVasW",1565202,1009,FALSE,184231,35,5,24,26,20,3,24,40,20,3,4,2,5
"6pKI6iCVG7WdLF0Mf9nAPpZf5c","OgT7hFLOarSNo35bh3ny1Uuo9w",1911464,164,TRUE,300998,35,10,25,15,20,2,25,NA,NA,NA,NA,NA,NA
"6pvUjImkWLRJHbVhvgsHbTt7nO","GuILdxphBnkitHTWs0Nseu228u",4886243,1076,FALSE,266697,35,15,20,30,20,3,25,40,60,3,2,2,5
"6qH9fWrGYP7HfUk0HdH1qxtqMJ","wd4Alho9i0owPknuFbNoMVgiEA",166132150,1211,TRUE,301004,35,10,25,25,20,3,NA,NA,NA,NA,NA,NA,NA
"6sgmuObbk4XMUNmgt2z4iwhbmp","V0fwRhkHLWsSXoJ4QX6rbTOWT6",805280,36,TRUE,301008,60,15,25,25,20,1,25,0,100,3,NA,NA,NA
"6thrHrEOsUDYmOPl5Bcz4O0bZr","msDvfKwnJ911ECw7YcUVwloTts",995455,400,FALSE,168877,35,15,25,25,20,3,24,40,60,3,2,2,5
"6U2gr19I2NQiM5gSpro6PGjOi7","du3uR3np8NqWTMBChdP2na5oJo",8413763,1256,FALSE,228496,35,15,24,26,20,3,24,40,20,2,4,2,50
"6WJIN2WG2fOnkRmofBOEla4m2v","VyjdPIxJG3tKonhn5bSkw7m88M",230674,12,FALSE,223028,35,10,25,25,20,2,30,40,60,1,3,1,5
"70b44M5mB4Xr2mjMPQ7b9FugA3","hVoX7DY7HzWBCvaW2n7LVxzHpp",3170437,1197,FALSE,282302,35,75,30,20,20,2,25,40,60,1,2,2,50
"74pmzKgVPXzP6Q2qHhOhZDTkPC","oAeCLxHIiI9HKjomPYTlQaIoel",754698,42,FALSE,247053,35,15,25,25,20,3,25,40,20,2,2,1,5
"76ScTXpOIKnsWnSve5wcAjsEwN","Je80tGPzsfSzas1ZclPY3Wm7t8",1702659,498,FALSE,229965,35,5,25,25,20,3,25,40,20,3,4,2,50
"76ZEl33J4Cl7rMcsRDqAEcmDW8","4z5njMzacw3INfM5tMcWfPVXMn",3772149,557,FALSE,215445,35,15,25,25,20,3,25,40,20,3,4,2,5
"79lj7GPPIXA51cvbjmPqxUbElj","Ea7UCm0ODUT04wI3cC28g2O92Y",1401078,599,TRUE,301006,35,15,45,75,50,NA,45,40,0,3,NA,NA,NA
"79wi127Ma9Jx2Cdfd3QrCLkTxy","MQQ5cmiQidYJKJObDUrul2ShSm",2900860,528,FALSE,214042,35,5,25,25,20,3,25,40,20,3,2,2,5
"7aFwor6BraYf7tYTQIknN5wRR3","1IeMk6mSXgyRtcCTHQrhsCxWj3",2033207,417,FALSE,265688,35,15,25,25,20,3,24,40,20,3,4,2,5
"7FL755kgTiuq0qX8hCziZrt2J4","vZldo5ahRmbRVeDO0s1aFBSaGN",41993800,880,FALSE,228723,35,15,25,25,20,3,24,40,20,3,4,2,5
"7H8Cmnmb32dMAe3ALUoTKfiErN","DchHfFkTArB70rnRITqBkOmwso",319026266,1260,FALSE,296524,35,15,25,8,20,3,24,40,20,1,4,2,5
"7k7aW77piICDhQRpAUcpBDuXbD","O2q9K2X0vFpg44p2bGYnrh38n7",7612278,215,TRUE,300998,35,15,25,10,20,3,25,40,20,3,NA,NA,NA
"7m1MZQwUVobbHPQlBoZ74HwA2M","uZGB3NEkuyYSAzJVyu9x9ATV6G",1495037,616,TRUE,301015,35,50,24,26,20,3,24,40,20,1,2,NA,NA
"7MEKHphv0xo5tSsWdzYaorO0rb","auwyma7ffBvoIIeWkgLg7BICMd",725042,93,FALSE,220690,35,1525,25,50,22,2,25,50,50,3,2,2,15
"7nmTXxgyKTFac3ppfcERXMyXo6","wPEtdp60Tm81GPPBsVTL8ZB8EB",2073954,1041,FALSE,241595,35,15,25,25,20,3,25,40,10,3,2,2,5
"7OYfMEHw3DTC2EAjBJAxDhpy5x","cDcJKpcPlUkWfGOuSXZqAuvlmq",2214604,621,FALSE,156610,35,15,24,26,20,3,25,40,20,3,2,2,5
"7UXg8VDDs1YVZr5G0CNpHAtPl1","kXo2XVG5TdvRyucZu2YfG2viSt",2474388,240,FALSE,278479,35,15,25,25,20,3,28,4000,6000,2,2,2,5
"7wDjfF5VTJUbeqHbBzRCf4aPAK","LnXZCjBPFoI3PEGfiK01si7bC2",7701631,1217,FALSE,232039,35,15,25,25,20,3,25,40,20,1,4,2,50
"7WX8swjrfYUvYzOMyC5gys9LNQ","q3xuGeYGLSxtB2rf5qrD0rBEas",4125862,1149,FALSE,183574,35,15,25,25,19,3,24,40,20,1,2,2,5
"7XXGj4SN6wxi44sk5bZSxSMW7P","aG2NQk0yR0i1gxCOPTGTLZUkj7",2362865,418,FALSE,235634,35,15,25,25,20,3,23,40,20,3,4,2,5
"84h3B0ggqh8xmCHE7NLIrQujWH","2vd8q3KZLiKeZnsHjvDbdzf3dZ",151059137,1254,FALSE,245432,35,15,25,25,20,3,25,40,20,2,2,3,5
"84PLFNiExxQCKcrdLQWvpuCBaB","Yf2Cw6US0owCi33DddjU6vgMNf",1261952,172,FALSE,166602,35,15,25,25,20,3,24,40,10,3,4,2,5
"85bZHDnMDP1yVKxIrMwhTdN8yz","myK1hC2haMye77S2wNfaMto5qr",599984,101,FALSE,147229,35,15,25,25,20,3,25,40,10,3,4,2,5
"874PVDOpRkGVH7Fr6zGLWlDN3G","d2QjVBlR0EtwQXLyapSo93o08j",1277412,158,FALSE,281191,35,15,25,25,20,1,25,40,20,3,4,2,50
"8ApIwIFkI0yXiLkYaxzqllsVFs","PQ1BYHzUziBeo1UedM36pxMWiz",1596714,1025,FALSE,110311,35,5,25,25,20,3,25,40,20,3,2,2,5
"8bEsIueE2DwmGo4Pu6wRulbCua","EHWL21s3C2wxWBmjpnnGnufD8i",5464059,625,TRUE,301004,35,15,25,25,20,3,25,40,20,3,2,2,NA
"8bgCouBCOHZJ1N9pEySwAagUrk","OhPIbye1ZJ6FPCF9LIJsSBkZeM",4681262,578,FALSE,174892,35,15,25,25,20,3,25,40,20,1,2,2,5
"8c4mLmJE8S8XJb2pXitpmtcBPF","6clHe834MKIGFlASYwKPqols2G",8598228,1123,FALSE,195269,35,5,25,25,20,3,25,40,10,1,2,2,5
"8DgoVqRpPsz7KMty7u3tXt9qxF","pAilfRorPlL5R1MbIDYxaqAxxb",3798345,200,FALSE,188736,35,15,15,25,20,3,25,40,20,1,2,2,5
"8FctbTr2LbAaxxZ6rPv6etK2Nu","XxBgn0CgSwiM6TUqJoRjZUVPj3",3872860,1213,FALSE,298939,35,15,25,25,20,3,25,40,20,2,4,1,50
"8jQHWp09QBlMKBrZ1YGGjXyYxz","nWLQGKIqFIEDqv0d5C3jla3Mmv",3229819,282,FALSE,213905,35,15,25,25,20,3,25,40,20,3,4,2,5
"8LES8UBFjPif7RVOZl8PC7rPeE","a1rKQdoE7UzCcG8jBeaFH46WN9",5891045,260,TRUE,301001,35,10,25,25,20,1,25,40,20,3,NA,NA,NA
"8nIOwUjtYgI4aIKJ9aNTf8h16u","Nus8uaRiCCYEI1wmSzGGxByvQw",4628598,1164,FALSE,251513,35,5,24,25,20,3,25,40,20,3,4,2,50
"8PVfSWdBgLigUlwLmQragvj5mE","SpmIyObqvf2GNmCwQvD0Ccx81C",4367469,844,FALSE,276820,35,5,25,25,20,3,29,30,40,3,4,2,5
"8rR5CZkUjI9Na55sEAqOyVEoi6","SbVr9ss36tSDP17h6v1RKcrHnJ",3948347,1242,FALSE,147420,45,5,25,25,20,3,25,40,20,3,4,2,50
"8scPoMC4a0FEC5Lvo739qAbkOe","DXpiJn6FOlbDHKd9qkXLRIRDl4",3448245,859,FALSE,250644,35,15,25,25,20,4,25,40,20,2,2,2,50
"8xOXwosX5cfMvTkWRfoW22p27r","J2fcotlwFCU4o1VrXnpARH3j4w",3131045,1072,FALSE,262690,35,15,25,25,20,3,25,40,60,3,2,2,5
"8ZjgrL7SaFwNjWlAMoNJ6lPx0a","KeoGykGbO29ahKIETtbukl5iXV",6127368,1269,FALSE,267451,35,15,25,25,20,3,24,40,20,3,4,2,5
"947j6OuHYqBJ61NArTeTpBW4zL","tjK8ECf4SaTUAR3n8Rk0wm6sBG",3604141,1221,FALSE,153076,35,5,25,50,20,2,25,40,20,3,4,2,5
"94zlDKCBLV1rPuaR54Dr6uAL1L","dep3TmFMdFdrPsICECW8uUhmE1",731286,35,FALSE,263388,45,15,25,25,20,3,23,40,20,2,1,1,50
"95UpB4pFQ6Ia6Qm3yEuDEWiBWM","iqwBzjBNmRAHRNiC3UWgctj2U0",353664,12,TRUE,301001,35,15,25,25,20,3,29,40,20,3,2,2,5
"96gRRgh78dMlWt3bziYeu6Rd8I","Z5Tz97pI05GEVMZPYwpqtdUJuR",3071011,654,FALSE,208841,35,15,25,25,20,3,24,40,20,3,4,2,50
"96vtEse7Jvrr4VFv8m8zN1lbAL","5EK30SmSBPzacViW4FzP1KGAM5",20882850,285,FALSE,173709,35,5,25,25,20,3,25,40,20,3,4,2,5
"97DlY2McIjmlmrojpG20tDRjVe","bQniAWrv828Mg3DYiB2SsMnyfu",619817,82,FALSE,226341,30,15,25,25,20,1,24,40,60,2,3,2,5
"9dwP9jQVLp2W9VTjXnGWPDjhtK","mWnHtPlBcjZ1cWk3AUpCh5Aywu",272364,12,FALSE,264025,35,15,25,25,20,2,25,40,20,3,2,1,5
"9fwjlbHAqheUeBwXBT8BfWcYR0","wDdxQNz1pM2TIVYdnOl3QgX9O8",2175386,999,FALSE,247940,35,15,25,25,20,3,25,40000,60000,2,2,1,3
"9KKiBDB8gvPfFIhARfmrIMqkro","zvKnbitcvUt7aeX7ZI0Sa9xoGD",3297712,1114,FALSE,205946,35,15,25,25,20,2,24,40,20,3,2,2,5
"9kNyMAtKimMGdmyucTDDH9Gdbn","17f1hlT1y3cK7nZpaBijGNobDK",3911915,660,TRUE,301008,35,5,15,20,20,2,8,40,30,3,1,1,NA
"9kvT3TjvbahUI86bi8B6yt9A7W","sESqyl6q522bI2fORRatD3ujBS",2920699,1244,FALSE,192093,35,15,25,25,20,3,25,40,20,3,4,2,5
"9n3biqvITwZCJsdZ4OCbmhEo8z","lGfM67xQS4OdR1NKNr4ck74Xgg",6908689,1248,FALSE,287310,35,15,25,25,20,3,25,40,20,3,4,2,5
"9nRV5nL8k9OuN33XyX0xcW9P7P","2O35WkGYoSYXRz74cu7kccN7Zp",598152,27,TRUE,301005,30,15,25,25,20,3,25,40,20,1,NA,NA,NA
"9OkrlZUgb7ZLx9NSVRBCFK4Dxk","ynvNEDCJmzDaqXB7N0zxZuAVlF",1030555,596,TRUE,301010,35,15,25,25,20,3,25,40,20,3,4,2,50
"9p6Q7PA8LLQlw5QMWlgAZMtSf4","GrPT8BsQFNJJM9to5CxinfLFst",3089973,573,FALSE,286540,35,15,25,25,20,3,25,40,20,3,4,2,5
"9t5XADfcvfZyoIbexcMcOc4qnx","q0cWFLTJlzJSybjzo0OrvCUhPZ",4557605,1188,FALSE,263837,35,15,25,25,20,3,25,40,20,3,4,2,5
"9Vx0KRe49skyX1hDDv5qfmx0Ti","cImKLbANlH82o5pHMtHmYfUZLk",2677650,815,FALSE,227851,35,15,25,25,23,3,25,40,20,3,3,2,5
"9xbgt10GhID4ZK4my7FPN6vNgG","OF44DH3UgnDXUGDZi4H3cVvmZC",226049,12,FALSE,213609,35,10,25,25,20,1,28,40,20,2,2,2,5
"9xKJaPnGXHvOroXPkmqaUghCh6","gODjXC0sHjiYnsZLfSXLIC2Bby",307028,12,TRUE,301002,35,15,25,25,20,3,24,40,20,NA,NA,NA,NA
"a102dWSMaiQCdhZ5WEBZii4wSx","O8yIIUsyA1NfAU2OuQAdvfNnpV",1131028,30,FALSE,283744,35,15,24,26,20,2,25,40,20,2,4,2,50
"A1vsYKVg7BpCDSvZ20x3IlIyBx","670pbo3ELjtZUCUTT2vlp4rlyk",4241926,554,FALSE,199699,35,33,25,25,20,3,24,40,20,3,4,2,5
"a5eJv6Iia0FSH2uLNCpxBtG9vg","QiXnbETV3t0hnmc6SB7mEyedha",3221853,770,FALSE,245644,35,15,24,26,20,3,24,40,20,3,4,2,5
"a5OJWwnHuxTZ6ReWGAsO2kvGdd","Qk5p2y6gQe9RPtGdnZs5faOCjv",7018245,814,FALSE,297333,35,15,25,25,20,3,29,40,20,3,2,2,5
"A6rBscEcjg1AI0t22CpbFBBuRA","K1PeDeCWQPHwYoEVjAEpUoYLLy",7611884,480,FALSE,280070,35,15,24,25,20,3,24,40,20,3,4,2,5
"ABuKYtxJSfrr2zMqkiPdLsLI0u","jV5cZCQIhATEpLGDJUqT7Xn4GI",747451,30,TRUE,301002,35,5,25,25,20,3,24,40,20,3,4,2,NA
"ActlFYGADS2784gt2gPreSYNIV","6OtFvnhNXvDltdZ1wSBIO1B4ul",1444622,446,TRUE,301008,35,15,25,10,20,2,25,40,60,3,2,2,NA
"AdAvafMY8ywRFgRftcvuixBFPa","TKZLpHJKD4QBWYqlilnGBwD8Cn",1452503,98,FALSE,174621,35,15,25,25,20,3,25,40,10,3,2,2,5
"aDDSZEOyQUEjKQKpkV4zO9Bq5w","eRcNNndT6wodOAXByIgZyKk8dG",3628552,1242,FALSE,195492,35,10,25,25,20,3,25,NA,0,3,4,2,5
"aGQrKwPkQw1Fe3A4lQpELAHRn8","zfW1ezCfFjOuBTDbmvBCELFnRZ",5931803,1243,FALSE,235897,35,15,25,25,20,3,25,40,20,1,2,2,5
"aHfPGsFCOlgThSgAu5ZPuQHEsX","qOdzQ7K7CvHNPzxrk2qtE7oxkt",547396,20,TRUE,301002,35,15,25,25,20,3,24,40,20,3,NA,NA,NA
"AJ39QKULmWW5WscSM3APu2VnN1","8jE6CIlVRkXvqQzMa7bOSJ50aI",13161769,17,FALSE,219321,35,10,25,25,20,3,24,40,20,3,4,2,5
"aKesToTuDduWhxZSk71FKh4zDw","QPREUEF13quVrQSOhPybOlVrnz",1259722,956,FALSE,174224,35,15,25,25,20,3,25,40,20,1,4,2,5
"akk9IJQ1GDSJu9lxUyXE9mfkGr","90SePru5bKPyod7UuIUuo30sg1",3348899,146,TRUE,301003,35,15,25,25,20,3,24,40,20,3,4,NA,NA
"AKvTS8q2Wak0hetyM6KuaY1THd","fAU4RXlIlgVVOJVmZyNtNVtbkm",846322,588,FALSE,242814,35,15,25,25,20,3,25,40,20,1,3,2,20
"alDyFCZZ2y4sn8neuLWFXkyfep","FVkHaHY1jpleeXLQYTZZWxpZSj",4912688,1243,FALSE,201903,35,15,25,25,20,3,24,40,20,3,4,2,50
"ALNT9ZKjERkIOs3LMgLIzVSbDs","YKkQxYUEwaZMHRclp4TXFyyzIw",604796,20,TRUE,301219,35,15,25,25,20,3,25,40,20,1,2,4,NA
"ALufuM3fywKPGoqYDJahTr2c48","1A9SQr9X0zbXlzFarjmCyBNiSE",767216,367,FALSE,215106,35,15,25,25,20,3,24,40,10,3,4,2,5
"ALwuaSXCxXFIDBfEErwM3UCJ6F","IDhz6IFfz2Sdz1BzGqnz9osDgY",1810605,60,FALSE,284583,35,5,25,25,20,3,25,40,20,1,2,2,5
"AmlisAVgf6XS6OdfPrQmrVtZ9K","ExKN3iN9iuBUXxRagOuW6gnHPG",5230229,1031,FALSE,186300,35,15,25,25,20,3,24,40,20,1,4,2,5
"anaWaZ1n5vnrtqVJEpFO9nlbXV","RDNelgvrpOFJ2vElozpNnZSdsO",1998657,267,FALSE,248276,35,15,25,25,20,3,25,40,20,3,2,2,5
"ang5lpj29VjL2fpl6DUbHm7hyR","3MKl1jibEOvDoEiw92yAbrTCHd",2830067,304,FALSE,206471,45,15,25,25,20,3,25,40,20,3,2,1,5
"AnIcn1LoFtdSN3heumdn6feY26","kSdelRuyhH2OaSNzNVepZ02ain",4168393,1266,FALSE,219497,35,15,25,25,20,3,24,40,20,3,4,2,50
"ao5RfMOSePU4WhL7a9sbscMBxO","geLF4gF7PsrboXtn6jlx8xfHGl",310167,12,TRUE,301001,35,15,24,26,20,3,24,40,60,4,4,NA,NA
"aoiJgHqNw7u3ZkzWTt5p5JToVt","04jk4onWJRaLAYEm3KnV5E3v5W",1618905,183,FALSE,200144,35,15,25,25,20,3,25,40,20,3,4,2,5
"AOW7Y8XlriC2vARkhDDjXURSlr","0j3ltOVi9G5BsHscesdp9puL5g",5107294,1256,FALSE,226491,35,15,25,25,20,3,25,40,20,3,4,2,5
"apATS0iNTVTlxKF6fTYs1edIrM","AF7N7dKx71iTbAUapPCPH9cEtR",5407375,1246,FALSE,274980,35,15,25,25,20,2,25,40,20,3,2,2,50
"Aplymwxw0se7PucPkFJWRGmBAh","RhQK2XnzOjnwRH0O1HWr6caTEs",3162400,185,TRUE,305687,35,15,25,25,20,3,24,40,20,3,4,2,NA
"ArEkUOrmKWoFhBGujfDvoFEF3V","6FQwZP2Gk64oEA1CD3FoR8jJDT",7922866,822,FALSE,192712,45,15,25,25,20,3,24,40,20,2,2,2,5
"aRg8OsqVaMVLpwb5kwt3dkM67f","EjcfgFo4v9vrzun754BsL72igd",2002935,185,FALSE,242660,40,15,24,26,20,3,24,40,60,3,4,2,5
"ARItyTJtyNLtLFyyIvzMH9bZX4","SA8x7pICUvgW4qBp7VubOSXTnf",3051871,638,FALSE,197834,35,15,25,25,20,3,25,40,20,3,4,2,50
"AS4rtcw5Sl1HU29JqLffnf10P1","X3P0EsfklMACDxTlVFknUK55L1",3220445,1188,FALSE,258213,35,15,25,25,20,3,2.5,40,20,3,3,2,50
"ATAfPkbisQv4LGk9szCqOV5LPC","GRH2zhi2c52TkvMvGQf7mjNPqN",3768673,541,FALSE,180895,35,15,25,25,20,3,25,40,20,3,4,2,5
"AtRYWQkvzaaKS96ar0xxrcwX8L","4p9gjBMb6gVFAuzPkweFPTxkET",3603976,422,FALSE,276608,35,15,25,25,20,3,25,40,20,3,2,2,5
"aU3rl1e3mnv9jUU1kYeFw4aLiJ","uaiujDLMkk9rbcTGzFhAGeE6Wp",2817742,1098,FALSE,181316,35,15,25,25,20,3,25,40,20,3,2,2,5
"aVAP8khT5Tw2zNKGF6NvgIRnf4","X3WaeKm40UR002kMXleNREtkX9",10810206,653,FALSE,248039,15,25,35,15,25,2,65,65,45,2,3,2,55
"AWElVPHqaXLcnH3poWoNNi0W4m","QBOtUG2YuOIr0ZzUxh8d8Wv4IH",2313736,1114,FALSE,159419,35,15,25,25,20,3,24,40,20,3,4,2,50
"AwuYu4xTd9Jrno8YSWlio7T8BP","ZzSS7Fn18wIDepvVgR7xrkaN7p",808753,63,FALSE,244293,35,15,24,24,20,3,24,40,20,3,2,2,5
"ay77ags5ZUxdVdMQ1jrIuRI6sJ","H05fxjhulLXaxPh4x2LYFMIK6q",4616810,872,FALSE,220623,35,5,25,25,20,3,25,40,20,3,4,2,5
"AyapVkTLmjL2DKR8JHKnVzMs6H","DT66LrWusyo6SJ8ANgyJ6EbWwH",6248624,1243,FALSE,236024,35,15,25,25,20,3,24,40,20,3,2,2,5
"aZ25KMt1g0ZBx6kI8JE7ZvrhxB","FI27YKbDhKp54EAhNO0NYsQesC",1291566,31,TRUE,301002,35,5,25,25,20,NA,25,30,10,2,2,3,50
"azhFg2TOsqgIxqlTDSbnKzinjz","ZS04hEAfc01RfejHT2LMOtdl9K",1931119,182,FALSE,286191,35,15,25,25,20,3,25,40,20,3,2,2,5
"aZHGeps5oVHwh5zO5mPcC7DdKC","PzCaOS4GWjvVMETELGVNkwOqOX",2769071,651,FALSE,169997,35,5,25,25,20,3,25,40,20,2,2,2,5
"AzIsmFVEWyuJAXOauozs6LOVXC","gfZW4ZftO1pZvJ7HzZcpY37iUI",927662,41,FALSE,210152,35,15,25,25,20,3,25,40,20,3,2,2,5
"AZYM6QGkq0tJyahvSD1G1In9Ny","EHmQB5VlI05cFAV2SQ26ssyXwo",10204830,645,FALSE,284134,35,15,25,25,20,3,25,40,20,3,4,2,5
"b3YOjfIB8YEGxYVZ0AYUOF9160","FMpClS4nSOPycTmjHT6JmdbYiO",906194,59,FALSE,293120,35,15,24.5,24.5,20,3,24.8,40,20,3,4,2,5
"b4v07zM7gbPMX3Vq3qWhJQXr2U","Ncyoof6E48QepRoP5T8CCZY7oE",4373405,1221,FALSE,211712,35,15,25,25,20,3,24,40,20,3,2,2,50
"b5R9l1JAfcy31xSCnsLCBE5l01","Oq9r8WRD5uJPubHvYeC5QvA7c1",1574047,406,FALSE,282410,35,15,25,25,20,3,28,40,20,1,2,2,5
"b7Tt16Q9S0DpUYQUHxUUCI020q","1e5dPQdQJBj4v4jvJx12CjCHVw",172380,12,FALSE,156446,35,15,25,25,20,3,25,40,20,3,2,2,5
"B8X7t49KzXNIOTfgJQckbSnXDO","KEsZAtAGpHs7wRJI6luSDTfwgl",238709,12,FALSE,228499,35,10,25,25,20,2,25,40,60,2,2,2,50
"b94O7RSaJ6abAexfGc7VBWDgL1","Tlz6xRhiYRyDV6gMVuSMfo6n3g",7891614,955,FALSE,236946,35,15,25,25,20,3,25,40,20,3,2,2,5
"baNxSEyZ1XOCjJW24VEnONHxiN","yNCPIDKT5tx2C9B2PFeOGhW7eU",1733533,658,FALSE,260042,45,15,25,50,20,2,30,40,50,2,3,1,5
"BDElTiyaAhZa61NaznXzhWFu1D","BmI28sJGRPGCYMbnhMHx6xIxKk",6781019,1225,FALSE,214526,35,15,25,25,20,3,24,40,20,3,4,2,50
"bDfpHT3LW6t7tm5QCeawxmY3T2","TXQ8b5X2T3wIPjQb1usO9L97Vh",7049997,1270,TRUE,301004,35,15,50,50,20,2,28,40,20,3,NA,NA,NA
"BdKRtW0uzV0lD3vMLBXh5Jse0j","jHhd1xA3RQ62lwT5GaehRZNstD",525107,27,FALSE,265979,35,15,25,25,18,3,25,40,10,2,2,2,5
"BDxePVctBzowI5QC9NZglfZgQa","gxBZjlbivdf4Ga9FADnuZrweD2",463911,31,FALSE,269182,35,10,25,25,20,2,27,40,20,3,4,2,5
"bE7MMvDosD3arKpEemOEkXv8iw","TLlazCLfjZUKGFbtHSAjZJVhFJ",4794431,1234,TRUE,301000,35,15,25,25,20,1,25,40,20,2,NA,NA,NA
"BF63tzVzldUCkttAqFEXhoocG8","nTkhct7RWBZxmHQ7JkVPKGoOdd",5180203,1243,FALSE,251190,35,10,25,25,20,3,25,40,20,3,4,2,5
"bfwn3dJN4ZCqYTTR48Fx4bBGYe","ZT8Jf4Cl2x6OAlkUlKbuSU39rz",2516353,1029,FALSE,198892,35,15,25,25,20,3,254,40,20,3,2,2,5
"bFxYYHUCBk1vvJFeDnekoCWFZs","choXO7aMTQLXQ7MxSSQBC7JXT8",1272724,153,FALSE,219131,30,15,25,25,20,3,25,40,20,3,2,2,5
"bg0ALjtwVzuvYAbg3pyeC6QeRC","JFcoTRDZqwsT6DUZF5ST1fRfYK",5557112,1249,FALSE,250106,35,10,25,25,20,3,2440,40,20,3,2,2,5
"BH2cCcK0Rih6IIX3frJ3c3h5tF","HocggSZiwdcUOxyL05w9QZMghS",2521557,165,FALSE,254700,35,15,25,25,20,3,24,40,20,3,4,2,5
"BIrdQwwxKDbQmq33pOqe5kQxjZ","zxmPyFGF5cuEGz9DUXoxKPgicd",6251324,1242,FALSE,241644,35,15,25,25,20,3,25,40,20,3,2,2,5
"BkFfwAx9CIR54XiTcehhNUgz0t","kkyLEUZhYa3JpG7dLR5qYqsfNR",6466363,1232,FALSE,234868,35,15,25,25,20,2,25,40,20,3,4,2,5
"bkmWieFqC7KN2VKZ0dIr6dszMC","a32TVUPhWMnr1c3ZdDBtEVFrJy",9434718,663,TRUE,301002,35,15,25,10,20,2,24,40,20,3,NA,NA,NA
"BllffKgk4TXAHkQ93P3b3AWCy0","8EGVet4dUpu1s0XuRjDNeL398I",2943033,514,FALSE,269730,35,15,25,25,23,3,25,40,20,3,4,2,5
"bLoRBbZH7zyfcaxX5pkYrM6Sy5","Nteh4gHrlBzEPHzZFSHyBpd105",4157497,1255,FALSE,252189,35,25,25,25,20,2,25,40,20,2,2,2,55
"bn0qnvonBVFEvICedIA69EY6Y2","pNcDAzayhfhR756ejoF5Zec1j0",1095575,945,FALSE,241333,35,15,25,8,20,3,25,40,20,1,2,2,5
"bnADVnA9aPPvnDGvdTqy2EEmK4","JQVePV1LYIo9BtBIdoDiv4zO3M",3862907,517,TRUE,301006,30,30,25,25,20,2,25,40,60,4,3,1,NA
"BntYnua8xBscel71pr37mNVfQi","PT4TSA4gAqpzaCfLNGRPYFvrjH",4817768,888,FALSE,251528,35,15,25,25,20,3,24,40,20,1,2,2,5
"bnw28I4laUhKWOv9RaPXIQjPf5","0p2qfN7JKIu4tp37pxc15DNDyo",927951,94,TRUE,301006,35,15,26,24,19,2,26,40,40,3,2,1,NA
"BonDBpmoYGSLErwzB0kVR6HcWS","oucqsnpvJq19Z4DBADnemIcOrF",1213428,396,FALSE,235729,35,15,24,26,20,3,25,40,20,3,4,2,5
"Bou1IUVHeRtQCc0jOUlUBNVNUO","cpLPx9jynCCZpKseooU5VgXXnI",4281266,1241,FALSE,267593,35,10,25,25,20,3,25,40,20,1,2,2,5
"bPDxMMmB7mFEp0T6MEiS0BPjRR","EHuwBfOH4B7KI9R1UB9mLtNwcw",3430238,1145,FALSE,156437,35,5,35,20,20,2,25,40,60,2,2,2,5
"bpfoQcKoLPBgVgxlY1oGgydIRp","BYXudld064RpHWIPZI7v5xjq7L",1307605,66,FALSE,219367,35,15,25,25,20,3,25,40,20,2,3,2,50
"bPtBDMXXlQDIdPHejUVxU4O44X","rnXzl5FHCIMm2m42spuEyhtLHz",337898,12,FALSE,291894,35,5,25,25,20,3,25,36,20,2,4,2,5
"Bqrh8iwMboz4JbGmREg6eJruHj","swZMyhD9jOy9kYleRATh5zYKxv",2964955,548,FALSE,180190,45,15,25,25,20,3,25,40,20,1,2,2,50
"Brdabu7M0vkFwPuLzlPkEEuPF1","mGRl2Dfu9SJyEsqwdjAEqYtyfb",1530719,127,FALSE,246283,35,15,25,25,20,3,25,40,20,3,2,2,5
"BRNFdBMcVLromaz6Z1yOVRgVZa","pH33MnZH3OGwMeMXq5mburHd7Y",2721508,1170,FALSE,158654,35,15,25,25,20,3,25,40,10,3,2,2,5
"bsqcNRWN3oMJRe2RAJe1pGVh4p","zMfMGw8E9iBNIw6gYQ7jIHN3fM",625428,82,FALSE,289532,35,15,25,25,20,3,25,40,20,3,2,2,5
"bSvTubBrrvNafoJpyUx6uzfSgh","eLbX440xvn5Y270mW9tVBZQvsD",340677,12,TRUE,301001,35,15,25,25,20,1,23,40,20,3,4,2,NA
"BUAQD3hBpGSHD7AtBMhHjcgaFH","IGzcnzQ4vP5M0LlN1ZKxZTuL6h",3066144,720,FALSE,268082,35,15,25,25,20,3,25,40,20,3,2,2,5
"BUJp05tGw2TXKNcr0VknD5fTEi","800fs2idIJqtwFbiSQgtuYijmW",4688863,583,FALSE,235337,35,15,23,10,20,3,25,40,20,1,2,2,50
"BVd1L29wmvCcJY9LGWd84DEEVK","TyOvMygI5BuR9qWh2qIYqkwx7c",146954,12,FALSE,141916,35,15,25,25,20,3,25,40,20,3,4,2,5
"BwWVgPuqtQd06w7qRZpqRRZP2k","LFGNdwbhyh7d9UHBjYpNhDbyqt",5455170,1115,FALSE,286250,35,15,24,26,20,3,24,40,20,3,4,2,5
"bXeXgzBCmUmDONaunaEP9qH3Jt","t72CB9psPHeBh0AYfqrk6Nszjd",353520,25,FALSE,187181,35,15,25,25,20,3,25,40,20,3,2,2,5
"bY1VoVPMwfwjG9dQrNhkZs7s1R","e8MILps0xusFT3gUDdLP1YuWZF",4773315,1151,FALSE,209957,35,15,25,25,20,3,25,40,20,3,4,2,5
"BynFm7Ut3voAkgNYMeyulvNvSW","GDXQa4xQndpXOELYsTYZroE3CH",4290375,641,FALSE,243578,35,15,25,25,20,3,25,40,20,3,4,2,5
"BzLyF8y3kCpmn86wjHpMlw0xWn","YFMd1Dbywj0NFJaMLhp9UR26bd",2102465,436,FALSE,249141,35,15,25,25,20,3,24,40,20,3,4,2,5
"c0jjQle7p2yzly9w5A1QIGmis3","g9jeRSJFEJSkP7TvNHFSgT0UG8",2478783,99,FALSE,268433,35,15,25,25,20,3,24,40,20,3,4,2,5
"C10ZWG6Evrs5QBrVL2VIR7clnS","USDPXwE7VxlTAVoy7Br2Vics2V",1067559,603,TRUE,301001,35,15,25,25,20,3,24,40,20,3,3,2,5
"c2dDX9VKfOK2YJon9iEPwtYpgO","GADrQ7S2nvpYEQBH0pMkRVHvvb",3605602,1150,FALSE,260017,35,15,25,25,20,3,25,40,20,2,2,2,5
"c4dVm0W47SXkpSeMcj7OZ0Taqf","Imwp03JKxZvYvF5iOLVu9BES8D",3471009,614,FALSE,251676,35,15,25,25,20,3,25,40,20,3,2,2,5
"c58RtiymRDZOeQBm15WQkAdoqi","HoEXcYwvIQedVziufOh2fQ7TKH",2499348,618,TRUE,301002,50,50,24,26,20,1,24,40,20,NA,NA,NA,NA
"C64PWwmF7NwNOf9VxHkXapjHu5","v4XGl3pLBrlsAMEUJI7KBWdspP",3707225,1243,FALSE,106420,35,15,25,25,20,3,25,40,20,1,4,2,5
"cAkAxCLm0LU334unu4uqB0OCq5","AqEKzGS6yQKRIJ8PIeLuCkrWsu",2372593,389,TRUE,305338,35,25,25,11,20,3,25,40,60,4,2,2,NA
"cbCEznomGisaFM7Kn8l94IAxga","UyCL5FKNiZkKsqwm5ydWtrlTBr",3238355,720,FALSE,241142,35,15,24,26,19,1,25,40,20,3,4,2,5
"cbho8R0sIFzNFntknLXOaoKrGv","Tcd5RQ1EWGs9VpiKDyYJcyeVqY",7838381,619,FALSE,244730,35,15,25,25,20,3,24,40,20,3,4,2,5
"ccSI9PWYV7z8Qr51vBwGIrLOot","00Br7ZwzQT4HGgXckZAaRG2k49",965451,374,TRUE,301002,35,15,25,50,20,2,25,40,60,2,3,1,5
"cd4Ue4xnblRnHCwsyHKBfWQfj6","ttjkphkrVLF60v5rJBhHPBPyhG",3622604,1213,FALSE,238202,35,15,25,25,20,3,25,40,20,3,2,2,5
"CDlB81XitWoO0lwqlmSozK6otW","907anSYhlCa9y9bjiG8RfqlpQk",1186175,42,TRUE,301004,35,15,25,25,20,3,24,40,20,3,2,2,5
"cDLwYDwveA8LW92ikHehZqzYcX","ma1DAyykuGsN3TpRxzYzOrVOIr",622751,33,FALSE,260577,35,10,25,25,20,3,25,40,10,2,2,2,5
"CESZ1LnbZkv29csIQzPlI1NPi9","yGiM3EJtJsVv7kQZ887a2J9CF1",2727637,627,TRUE,301012,35,15,25,25,20,3,25,40,60,NA,NA,NA,NA
"ceYXsMjCaGVymKuBQ5853mbBHj","oFzJ33h6088b0B11Nr34HNh16E",8196740,1237,TRUE,301007,35,15,25,25,20,3,25,40,20,3,2,1,NA
"CGGdEgpJOVHhxNgrniqPJGONsc","9gCrefkAdHgHdHrVqcI4oN7wPv",543403,29,TRUE,301004,35,15,25,25,20,3,24,NA,NA,NA,NA,NA,NA
"CHgoLMex7HALYMoMrFBClH4Q4K","ajmlUfAya25c3IW5sOxrNBUqa0",11367278,434,FALSE,299342,35,5,20,30,20,2,20,40,60,2,2,1,20
"ChoDGzi33KmPv3MJT0j2CP4V7f","FbrvMUYUDJVQycXguKETFPtxgc",3818937,1242,FALSE,133005,35,5,25,25,20,3,25,40,20,3,4,2,5
"cIdZTOzAy2lR0h0VZhJDXVjwjQ","d0aankKkjm4p6Mip0Ua5xqmwbA",747778,20,FALSE,269625,35,15,25,25,20,3,24,40,20,3,4,2,5
"cIpEjgaoJsFESRS3wIDwKmdUh6","w1zWQkXm60CUNlEGfCLrpYV74f",144708,12,FALSE,134560,30,15,25,25,20,3,25,40,20,1,2,2,5
"Ckoss0U0IGSGXF4X3h0vc3yG1g","iR742lPsVbWtBX715AYEgm1Vt4",5167727,1148,FALSE,237916,35,15,25,2519,19,3,24,40,20,1,2,2,50
"CKphzvK0Ywppg0xyAerv4ofIpE","oD2we76USEen8SMM52u7JrqLgA",445671,41,FALSE,153818,35,15,25,25,20,3,23.5,40,20,3,2,2,5
"cm6NbE2vNiinPhBLePCVfmuZVG","q2EDuzGx1vrOp1FcxfIHV0KPXz",1129515,108,FALSE,213636,35,15,24,12,20,3,25,40,20,3,4,2,5
"CMwGIs8Q4DoTNmzYPzMkcGfNZs","tA8Jyuj68xGQ0smxYYQLKAQEY3",4598423,591,FALSE,203255,35,15,25,25,20,3,24,40,20,3,4,2,5
"CnGmv6kP7xkOAk2fGKhsGZJshf","VQHZCyiyLlhICH85Y5ezbSCOaS",311076,12,FALSE,299043,35,15,25,25,20,3,24,40,20,3,2,2,5
"cnIL86wrNWZG4CKJAxrdBk0ytG","A5RFyJRtfijqnRSwqCyeppW1I7",265203058,890,FALSE,230156,35,15,25,25,20,3,25,40,20,3,4,2,5
"cO3aO0UbBOnx8oFLOiJ2eY7v3s","ubFmJUOKL5PBDlTiZA1IinWdFR",2790308,477,FALSE,280726,35,15,25,25,20,3,24,40,20,3,3,2,5
"cPB6YLIGgTkfy7ybLI7ZUzxiNw","BSHmzb4istjMdL7F1WYnp37vh5",825019,407,FALSE,164107,35,5,25,25,20,3,25,40,60,3,2,2,5
"Cq7erbjiHaow1HJBXbQSIgeKsO","53oHeA7lJLX9JwruIWXv17hk05",3300110,562,FALSE,283355,35,15,24,25,20,3,28,40,20,3,4,2,5
"Cqi4MseQh2z1m8w5rBVlvTN4gj","DMN5NoGxsCftXQ80UsWYVqfKBP",3339944,709,TRUE,300999,15,NA,35,15,20,3,25,40,20,3,2,1,5
"cqiyljyWtGirUyjr7LeG3fE8do","YjeAmTpUAGXURMJfUIYJXIFYUs",206723583,151,FALSE,264986,35,5,24,26,20,3,24,40,20,1,2,2,5
"Cqso8nkqvu5G6EfN8Pt8csB0b7","LUZQJJxEtpNlyuSuxH1ndyFWzm",355954,80,FALSE,138115,35,5,25,25,20,3,24,40,20,1,2,1,5
"Crg3hiDh4FvZZ0HGRZ4xbpx6S7","gEw35H1Qq9acJbp4VGC6rEXk39",5806944,1082,FALSE,230996,35,15,24,26,20,3,25,40,20,3,2,2,50
"cs3V71y97kmmT9JPz88iRlGRnc","6WzNBZ8vXoDpzEaGuO6GzXDR8J",59109060,52,FALSE,267464,35,15,24,26,20,3,25,40,20,1,2,2,5
"CsBXtgbvFreFwBp4bLYL6rXCYk","L1T1i7rKApGA2AUoRRDncrlpsR",5030547,773,FALSE,270601,35,10,50,50,20,3,24,40,10,3,2,2,5
"CsTIm4QKfB2fBPlBKS97AmJnRd","PxLa8vQUdOS7deG1MDkychdjzn",930926,60,TRUE,301003,35,5,25,25,20,3,25,40,60,3,2,2,NA
"ct8bT0Um3JGIBVx8ZWoOCXwcCy","LfPk6vIR9xCRFVZj3wuwyYUofX",7075158,211,FALSE,296485,35,15,25,25,20,3,24,40,20,1,4,2,5
"cuCsqRWHDFXPZvmSIVHbw9LzsG","V6YaqzlXXZx9nX1tLXFZ7IvQxO",2403119,1068,FALSE,123141,35,10,25,25,20,3,25,40,20,3,2,2,5
"CVa0u43WLopqi55lOypUqbF1EI","sNyaETZBaJmwgUotnPqW5RtlJq",3031459,850,FALSE,204689,35,15,24,26,20,3,24,40,20,3,4,2,5
"cVc5xjTzgz2gwg27QiBa4ICzxf","ZEXCwGrSwTjExpp9ToGfgxY7ht",659573,30,FALSE,176828,35,10,25,50,20,3,25,40,20,3,4,2,5
"CxdVkJkhrKt0X3OpPjhi3xTX67","U5zfN5lrG2AlerxRP176Nc9NaL",332326,15,FALSE,289713,35,15,25,25,20,3,25,40,20,3,2,2,5
"cZy6JwHgZceSQhyQ1KIzHVt3xC","N2yRApAEXspP2OsRhAzOtjLwqB",2779550,1095,FALSE,136452,35,15,25,25,20,3,25,40,20,3,2,2,5
"D08LoI5gSALmOGkNsmSoHMVFZ7","KzUpEK9kYAuhGjWooBbI4zsup7",1017673,21,FALSE,226118,35,15,25,25,20,3,25,40,10,2,2,2,5
"D1ZcuPbbp8TADHZZOBT7lnnPjJ","A50x2bzhAclN3xOzpMb4eXwGLZ",4821527,609,FALSE,208501,35,15,25,25,20,3,24,40,20,3,2,2,5
"d6KfzyuhLX9Ew8tBHlkonOyguu","fCh8v28GiJESaBr0n5bzAz1ADQ",2828698,745,FALSE,248594,35,15,25,50,20,3,25,40,20,3,2,2,5
"D6ukuTsS1lXqwmGLGdWOkCNp7b","qVKhOQSCzj1oJLKs8RSRSafa8T",237264,12,FALSE,221709,30,15,25,12.5,20,3,30,40,10,2,2,1,45
"d7s0S7zSbU8rMw8gRBOfAmjLiw","CYub5dnziXSaC5K9vRG9SmVGO4",3166553,892,FALSE,232209,35,15,25,25,20,3,23.5,40,20,2,4,2,5
"d8mjAzaHeD2Uphn2aNR5nkoMVe","UgxjMra1BNAojx3DDji16MQLs8",1314452,89,FALSE,267988,35,15,25,25,20,3,25,40,60,3,2,2,5
"dAakWKbLkVvzsFQLvgD6zmeZZ9","pPZqrl5qw7RWfEMpzUqMCuLZZ4",870195,592,FALSE,220633,35,15,25,25,20,3,25,40,20,3,2,2,50
"dAKCcNFK2NJbTTvvtFCrU7ZBFw","x8be5tZqKdOSJzf5rLtz2vcWOx",2182359,532,FALSE,185508,35,15,25,25,20,3,25,40,20,3,3,2,5
"dBsmKE2PMRrFEq2kmTaFFZTJug","Fk97WEUE4LIiSptZftVljMXvGK",1744941,639,FALSE,244343,35,15,25,25,20,3,25,40,20,1,2,2,5
"dbZXy1G0ahJnGquQwuY0qBaULE","724LYulQcZiPHiuKtntiHV11qV",6288933,420,FALSE,292724,35,16.5,25,25,20,1,25,40,20,3,4,2,5
"dckVoFOJaOq0pf0XzNYc1mSz2j","FVq3lJk9GKKqNYkaJUPwFAghyB",269329,12,FALSE,231498,35,15,25,25,20,3,25,40,20,3,2,2,5
"dDLY4Dorw42uCa18Khh2AEnHNk","Jywb1Gj0W297xJHovV8a7ikKRG",1580646,137,FALSE,186210,35,15,25,25,20,3,25,40,20,1,2,2,5
"DDTu7OPDvEj49eBvd7L5ggRVIL","wlYQV2fjqynARqCijQMR2zpqxm",1608655,1034,FALSE,204353,35,10,25,5,20,3,25,40,60,3,2,2,5
"Ddwh4eeomRK0i3NziuQts6uGEj","LSywU2zGhRH80HBm36yYKf1t6u",2921846,1225,FALSE,182715,35,15,25,25,20,3,25,40,20,3,4,2,5
"deWRTkqduQZ2lVORvJPH7xPPZ6","dkYlbNGunexiBbnl4oQLeItCrK",111950918,191,FALSE,242987,35,15,23,25,20,3,24,40,20,3,4,2,50
"Dezh85J4lbBFFrt9etE8YSJhaG","ooyY9O2Zb1XrkJbqfFp5O40ME3",3153042,1239,FALSE,134544,35,15,25,25,20,3,25,40,20,2,2,2,5
"DgYMD8YjJX1HIA4HfTn469z7kX","aCuvGxUzQc4rthwdYzCdXMAbh5",2926969,274,FALSE,239500,35,5,24,26,20,3,25,40,20,3,4,2,5
"DH4vEs6kCxJ1GqQmVW2hNuB5vN","HXFppeK4ecqs263UmRwShmbRgD",5165610,1256,TRUE,301003,35,15,25,25,20,3,25,40,20,1,4,2,NA
"dHv6MkD8eeKzQYWMx6EftDNfKY","WVZbUAifWI3ouaLMg1vQ9w9jbS",4422075,885,TRUE,301003,35,15,25,25,20,3,24,40,20,NA,NA,NA,NA
"diyHhFeMOILdfMnmWmGAQkyF79","ztgwFFTnExwCLjeMGbn1sd9P0g",6359499,1127,FALSE,220800,35,15,25,25,20,3,24,40,60,3,2,2,5
"dkvdR8XdsesvdAzgqJGRxnpWt5","TNJkKz2sl4eXmRYFxgqEPt7tFM",5322149,592,FALSE,252989,35,75,25,25,20,2,24,40,60,3,2,2,50
"DlhsfLIJeZO1JbfvLccXJ2Y5mM","ODj433VzUm9MIPWYFqgwUMtmto",3768681,1241,FALSE,141021,35,5,25,25,20,3,25,40,20,1,2,2,5
"DmDaKGRuBlssE6qUu1mYhWVct1","81BHOPdcwsl6TJnwjQEGrdcHjw",798516,366,FALSE,219717,35,15,25,25,20,2,25,40,20,1,4,2,5
"DMDKLe2LNPEyMKeVA7PPZebqxt","TyUmH9sRBH5XuKMURKyJeKQusf",10986518,1037,FALSE,136125,35,15,25,25,20,3,25,40,20,3,4,2,5
"DmWosOxhbNqQW3bRhhhkZYFmYJ","ZBsy32kkqmKX7HLazQMfbTh34r",5753115,1242,FALSE,223322,35,15,25,25,20,3,25,40,20,3,4,2,50
"DohTFqOcWv69yidf1RxoEm202B","oWkI2FUCF3WyUkCFDdnoKQW3Sq",3278658,1091,FALSE,251890,35,15,25,25,23,3,25,40,20,3,2,2,7
"dojvUw9vt1QyFKVrUaPPPRQi3O","p7OTH52yF3bqv5PqK8apflle3Y",2513425,714,FALSE,212212,35,15,25,25,18,2,25,40,60,4,4,2,5
"DpJ1Ug9CDn6rKKHOJxmBZDOAnt","qZ91uQ4EfVujURmnD0FoMq3oqc",14518787,1261,FALSE,233345,35,15,25,25,20,3,24,40,20,3,4,2,5
"DpjfEG3PSFzXt6BYF1kt78jJvk","dztqeDdPyMmARyKjSY694yA9Vm",6174473,1243,TRUE,301019,35,15,24,8,19,2,23,60,20,1,NA,NA,NA
"dpN1b65lmlUxZKsV2JMn1Nx9Rp","FFIf7y0I3rPam9pjxlIM34yYIX",7048867,632,FALSE,227714,35,5,25,25,20,3,24,40,20,2,2,2,5
"DSXuxqWsQT0Tn56zlU7rQKlKx6","YsKzNqoHiTHEEZZn3jScZ0b7gM",793786,34,TRUE,301000,35,15,25,25,20,3,24,40,20,3,4,NA,NA
"DTpCUsaFqefHyAA6M4KLGTR6Cx","IsQmdugQ2WlvGAStwnBKmJIWyv",1817770,672,FALSE,282393,35,15,24,25,20,3,24,40,20,3,4,2,5
"dV5CKOdw1ji7SVd59CTcNgSqiL","ZvD24FHcr1U2XagaC3GbHWNjj9",2667770,453,TRUE,301019,35,15,25,40,20,NA,27,40,20,2,NA,NA,NA
"DVfUWY2jtMsWErgQa5dRcfQ4cZ","na6UDrM7z93zxsLlYHl5JNivZQ",2155061,639,FALSE,220807,35,15,25,25,20,3,24,40,20,3,4,2,5
"Dx3OZrDGGO2x8FlunKXHXjfK7o","liG5kP1Z2cTo5TJB81b5vXBaXO",3552413,636,FALSE,126814,35,15,25,25,20,3,25,40,20,3,4,2,5
"dxnLMJtS36NdoNXucJnDx88PVj","8diOuiDZYax0auaO5ViOPeKfK4",3734410,1092,FALSE,265468,35,15,25,25,20,3,24,40,20,3,4,2,5
"dY4v3dDAlYlKGQc6rXkICcX4ka","ZHOI8RiHCQyxA3aJGqJWT5167W",1904763,423,FALSE,225389,35,30,25,25,20,3,24,40,20,3,4,2,5
"DyNCNmbcrHbhl4O5Fyh51IcOMQ","sQlBVePu4lWCWF8agTNIhuyQNn",353365429,1205,FALSE,234375,35,10,25,25,20,1,25,40,20,3,2,2,5
"DzEMfNSOqExwMIcUCidjVpODnD","LsFD3nmGgn3mi7eUjcAKEnjFj0",395342,12,TRUE,301002,35,10,25,25,20,3,24,40,10,3,NA,NA,NA
"DZnnkqT3k6MixD4ZsRRCQVBhfJ","S1q7wyYU4wOhE6WiuAo6rI6Q7e",3152383,1224,FALSE,132272,35,15,25,25,20,3,23,40,20,3,2,2,5
"dzqoNgTEH0d7SEAtX51vX5Uodr","nKl1Z3zpvyTInbUaIUIYJRnt84",2668020,878,FALSE,200436,35,24,25,25,20,2,25,40,20,1,2,2,5
"e0Pn0uNIlynr0PnqktP1Xj13MT","38E9mcexVGgu7rnPgps8e7IhrY",2350684,527,FALSE,117457,35,15,25,25,20,3,25,40,20,3,4,2,5
"e1IjFhSnEhfjaIg72vyFQIypfp","02ISz3UCRwtXb85Go5AamvRn5L",2773199,836,FALSE,227567,35,5,25,25,20,3,29,40,10,3,4,1,5
"e2BQVWknXk7sdqzICGg8jjYJTn","bAMFqCdvpIACtwhcXcEHT9L0EP",1048309,133,FALSE,194681,35,15,25,25,21,3,25,40,20,1,2,2,5
"E2zl8v9d1qV0xb6TkrWvrTuo3L","Ez7M4bvhGpqQIF8BH7jHQeAB2V",3139599,769,TRUE,301000,35,15,25,10,20,2,25,40,20,3,4,2,50
"E3MkUV6ZYaUZqTdGQ6jC7Bz9NE","ypc1LWnu1l12OehkFlnlNCoAf8",1772597,1044,FALSE,182286,35,15,25,25,20,3,24,40,20,3,4,2,5
"E7dgKktACXUEJnQ4b8F3ufMLj5","uPiKHMtPguJvwlCNaMByCqkZPQ",821767,132,FALSE,149249,35,5,25,25,20,3,25,40,20,1,2,2,5
"ebfmRm6tNQ0TBq9G7bhjtvqqB9","iN5Wv9e0hOdlmrcnW0TrcWZqt5",2265607,1022,FALSE,276389,35,15,25,25,20,3,25,40,10,2,2,2,5
"EBlmd0ImHgnofMd3X7cKeO2WRb","xmiNZ2MFEor3HjOn6PVmFCuHNe",271559,12,FALSE,250509,35,15,25,25,20,3,25,40,20,3,4,2,5
"ECdgot6Pw1aXMuKS6HmdXi3IX4","o6JKRtlhB1SQrX3JG2D22QPYyg",6485621,1143,FALSE,260321,35,15,25,25,20,3,NA,40,20,1,2,2,7
"eCOTyMJFl1FS4r6FWRkQ89OWzB","38rDeiNw7Yzml0fQ6sTWbAl7Vn",7445629,1246,FALSE,163308,35,5,25,25,20,3,27.5,40,60,1,2,2,5
"ecVg6gYswBSVtfAi4nLKTf4zdt","NRhWsg6P2FYQVvGOd6fhyZztvx",1025896,610,FALSE,219714,35,15,25,25,20,3,25,40,20,1,2,2,5
"EDGBzIXxrSXlvTdsqPL16dn3KK","M2dmP3S5Fcb1GwEdPzghpY2QQd",2756845,378,FALSE,296022,35,15,24,25,20,3,24,40,20,3,4,2,5
"EegdMwlGFQANzth1gZYGuKbdAJ","YtsbTNMMrJOOoIaOcX9WZjcT1z",3826835,1040,FALSE,242813,35,15,25,25,20,3,24,40,20,3,2,2,50
"eEii00Whpi1T2X2JZiXAv22gBn","tUBmyOtwIlvdjMKasx9JTH1CGO",14527255,1243,FALSE,191011,30,15,25,25,20,3,24,40,20,3,4,2,7
"eEPFMYtX12jekZbroukDIJMLgc","bLSf9QApuORMdsLQ4LbOZ00SlU",1795089,162,TRUE,301005,35,15,25,25,20,3,24,40,10,1,2,2,NA
"ef7BZ2K6rF6Wwz693DFimU58k8","pOi1qIOgMuL3zl6oHAqMq3q5yb",620058,27,FALSE,276490,35,15,25,25,20,3,25,40,20,1,2,2,5
"EfrFEh7bN4IdpXMdIlSnmP9QUi","IKXnyqL9auQKzp216jeeNL52m5",2752163,639,FALSE,189802,35,15,25,25,20,3,25,40,20,3,2,2,5
"eGks7IhTp4q8k3EDQNvBbUKFGN","oVgUfvUTbWZ7RUY20CUVc8Z2Qj",1297254,198,FALSE,201422,35,15,25,25,20,3,25,40,20,3,4,2,5
"eHj352zN2Hlc8kiFaGSSZVhUam","GkJYV74aJlqPhOzKdhZMQRszQd",5028983,610,TRUE,301018,35,15,25,25,20,2,24,40,20,2,NA,NA,NA
"Ei5NzU1ufbO3NC4Tf15PvVXiot","hfDnDE0EyBKTXUa4OHua7rCWY4",5601902,1256,FALSE,263362,35,15,25,25,20,3,25,40,20,3,4,2,50
"EiaoF7A2aKkf67KksRmojBdiNT","aHnL0ERVLQyU4JldO74pidYDy7",323251,12,FALSE,269587,35,15,25,25,20,3,25,40,20,3,2,2,5
"eIL8FFCxQoYkVmUdVQUfZYKTTG","UDaN9rZOwT31bdHhK4l6H5sB1D",3692964,1090,FALSE,199248,35,15,24,26,20,3,25,40,20,3,2,2,50
"EJkF8lP21gRDm2LpKhPTdJL2mh","z3ASnkGiBk8g6V4SujOFFNpPQU",631124,41,FALSE,187273,35,15,25,25,20,3,25,40,20,1,4,2,5
"eKEPc9mE2DC1siy0ZU063FRUZg","AtXVCFpXaZ6RMFCdX4AT3Ua9KK",703437,52,FALSE,291894,35,15,25,25,20,3,24,40,20,1,2,2,5
"eleDhoIMox2gJzspiv1paR3Dhi","0A87b5yyQhp65Gn1EbkWvoYylQ",538894,20,FALSE,292185,35,15,25,25,20,3,24,40,20,1,4,2,5
"eOKJmdvH2iZTajpTCwO6pWr9Vw","ylUGxkzFZfoDlIEEHW0v0UDd3o",2625398,123,FALSE,285676,35,15,25,25,20,3,25,40,20,3,2,2,5
"eQz6YFE6LhNRSZrpYeP32V5ZaF","CIeWXmJ5GVt6as6zKazkbbcjnT",582116,41,FALSE,166006,35,10,25,25,19,3,24,40,10,1,2,2,5
"ERFFdnCvMqdE4LJDd6guXngMia","tGePpg1Pa7SXDTCjFgn5t2Wuvf",4896426,1257,FALSE,234582,35,15,25,25,20,3,25,40,20,3,2,2,50
"eRmaTZylmcTooxaIpldw55ug1G","Gk3ulfCPE4ptcewINzXUy29WI9",2612221,1236,FALSE,126459,35,10,25,25,20,3,24.5,40,10,1,2,1,5
"eTKBwTEeorR3RyMgJK1qN4zrmQ","vwdDWvB2kEz5iIryqpmHKa4veW",1836194,1104,FALSE,106589,35,34,25,15,20,2,30,25,69,1,2,3,5
"ETr4TGxge2A3BiJOR4EvNpqcpU","ocvcNvWNm4vnPXzMgPKG157w19",24052496,493,FALSE,145664,35,15,25,25,20,3,24,40,60,1,2,2,50
"eTSoGxCUpQQPKWiLlyQFNFl8Ql","erbC6kBLbs8pp2gMUZCysI5hLR",62134373,1161,TRUE,301010,50,15,55,35,20,2,30,35,60,2,NA,NA,NA
"EuaGqVM5FK6hg1fD0otSM3n5O5","IonZY9y4fO6RkyPPeGI2rikOcw",1596379,177,FALSE,186178,35,15,25,25,20,3,24,40,20,3,4,2,50
"evRfGzGmtbpimfHzxAl91gAYu4","18CLQfjTJP0foriCDoA8mI9NjK",6350682,1243,TRUE,301011,35,15,25,25,20,3,25,40,20,2,2,2,NA
"EwqDzxd2DvAPc7env6ogXvSvCZ","IPV9OScheXXPpgVH2X0jD7l2OW",2356602,167,FALSE,291973,35,15,25,25,20,3,25,40,20,3,4,2,5
"ExFkoX66tzQEKdlBgFon3Cn0gk","jK0NZyxdJ8bosF693fpj2ntZRd",3097024,765,FALSE,225739,35,15,25,25,20,2,25,40,20,1,2,2,5
"eZhRssL6CIRbSiCJasEcFHJlTV","snceV43xR8orBdEEJ8UNyaXdad",3110060,275,FALSE,219388,35,15,25,9,20,3,24,40,20,3,2,2,5
"EZvknkukeV63yRLcgpOTC11mCn","bymnEWKv9hhLiHNxQTNNw7JYbO",5614810,518,TRUE,301006,35,15,25,25,20,3,29,40,20,2,NA,NA,NA
"F0RaN4iAJQQ4us0LYX4xg13nHp","KM406j3unKVx13x0DbuJF9H33R",2130862,1046,FALSE,263585,35,5,25,25,20,3,24,40,20,3,2,2,5
"F1y19Pf1PsMvCpAF3ni2gYpcFG","ecdXOxrc8S5OYSDafE99E9dVUz",1868144,445,FALSE,297891,35,10,25,25,20,3,24,40,20,3,2,2,50
"f3v4etl3VZrlDFnbujb1cDhPt9","q3DVmv3rAispRTyurbCofLiMPA",4122985,1176,FALSE,249896,35,15,15,15,20,3,25,40,20,3,2,2,5
"f7awueUNrktSNQjArGAEldSy5M","jGx0DZVqRDxfEvvj6yfhtXdqdp",3907180,1229,FALSE,194303,35,15,35,25,20,2,25,40,20,3,4,2,5
"f8FkoMcRZQS6hAYXRj9b8P4QNo","E13SBNRH8gYyk96Cj2dkMzaQEM",1914895,648,TRUE,300951,35,10,25,25,20,1,25,40,20,3,2,2,NA
"F9xzpMjjRYDrNQrIVYlwNXRrda","coesoHx1mEN7dPeQEqKScxbhFw",1806787,46,FALSE,258240,35,15,25,25,20,3,24.5,40,60,3,4,2,5
"FbIsAjHpfnh60lrWi4X6WJgdK7","bICJpRxkG5hKWa8PrLPFFAMkcg",734708,377,FALSE,213175,35,15,25,25,20,3,26,40,20,3,4,2,5
"fCoyBvMrJp9y5debKwSgRJnRFI","kMCdHjVmsJDbXliZgpXfBsXTod",1066704,152,FALSE,248700,45,15,25,252,20,3,25,40,10,1,2,2,50
"fczHLGcqZryj8z04vecurWDNg4","cZ4RpYK4vT5Zy9W9G3qxbycohQ",1982991,436,FALSE,268407,35,15,25,25,20,3,25,40,20,3,4,2,5
"fdgl5qZZrMSBxANWDh4wWw593w","BcYj9B1dMd2cQXW9NmFR6U48lU",21209266,1245,TRUE,301003,35,15,25,25,20,4,25,40,20,4,4,NA,NA
"fdOHhxYbwutZqfjulXgILxDCkK","sR98WvqcRehndGslZ0b4HAYwCV",16117624,652,FALSE,236529,38,15,25,25,19,3,23.5,40,20,3,2,2,5
"FeuM7Ziht5OB9EIPJP6QKgAxx6","Te8dJ64zUB2J0CQQfAzjq0flIO",6047177,888,FALSE,247336,35,15,25,25,20,3,24,40,20,3,4,2,50
"fFMsosvTSvPnVAcYuCe8ammmD5","N2l1Asi00B2rTNUtYY5xbiXKD8",598379,26,TRUE,301011,35,15,25,25,20,3,26,40,20,NA,NA,NA,NA
"fGVnaUpVIWxjmRau2WJeSlHi55","s2SflmlywGqTyVVz3cddGGRgca",2008648,642,FALSE,243518,35,15,25,25,20,3,25,40,20,1,2,2,5
"fi9cashkyYE12Q5yMVUS0b7cg9","zItOsvqH7xBxQ8O9YzxYjDQLrX",1682538,684,FALSE,302986,35,15,24,26,20,3,24,40,20,3,2,2,50
"fjtTnZzbXBtkdcDAPnQOnYWtAk","JV9dV8QCPLRzd8bagNeo5XAyjx",4348424,1237,FALSE,253645,35,15,25,25,20,3,25,40,20,3,2,2,5
"FL0wOrqA16ydUL4870ezKNwjbK","xhijEwOiZ6QyiKi0sfPv4bywth",7283897,1258,FALSE,207037,35,15,25,25,20,3,25,40,20,3,2,2,5
"FlXLsj3n8Yf0ZSQnhomuahngvo","e19h3LD2SK3NRCghu7vilmgFKs",2024128,418,FALSE,273387,35,15,23,26,20,3,24,40,20,3,4,2,5
"FM116aB9cJrW5oSpdCJQffTus7","OZQssURfc8UXcjzE5hXyhFDMMB",3576352,1188,FALSE,194597,35,15,25,25,20,2,25,40,20,2,4,2,5
"fmfMCPeWNiYfv5epzmMO1JwVdE","5vxtTAJe5WB44GvPpsMc92fG1O",2139957,563,FALSE,198593,37,15,25,25,20,3,24,40,20,3,4,2,5
"FMvYCzGtYf1poSYhUXFi5UskxC","EO4pIzNLu3DEbFI9063KTPSECJ",1878115,258,FALSE,237804,35,15,25,25,20,3,25,40,20,3,4,1,50
"FmYdJLevUrFZD5CNvbYnG4gceS","XfqFEMsY3qGH1M39Im1PTJVwU2",29231004,1147,TRUE,300992,35,15,25,25,20,3,25,40,60,NA,NA,NA,NA
"FoDKm6hIstrMqjaNyfkDeo9AdB","R4tCzRqn6w18UHLS0OcLgWjOBY",531035,21,TRUE,301002,35,15,25,25,20,3,23,40,20,3,2,2,NA
"foumkB3edhhJwBSdlhGHcyWCwV","tn7QxAVNJMALre90nuNJAvd4vK",3612104,818,TRUE,301002,35,15,45,35,20,2,25,40,20,1,1,2,NA
"fPAgoVh4VKhjcsZorjWXIAzH5w","EQtd3uajZHkG0bpBLKURmL6TYD",2672156,1090,FALSE,167083,35,15,25,9,20,3,25,40,20,2,1,1,50
"FptE3VHUwWqRL1Yx9XzZkgp3Zp","az3qYPyzrJrUDITr56CkiHW9Ws",3012979,1149,FALSE,188620,35,15,25,25,20,3,25,40,20,1,4,2,5
"FQ0LBUGSIQZb0FTTwlwQUlOXHV","BBJ0dLBGU8mksREApdlk7Tvoy5",6857936,1235,FALSE,245369,35,5,25,50,20,3,25,40,20,3,4,2,5
"fq2YxqHVW3ASnHGv5TQUDY9B6r","pj1d2YIM6LIMuhXFIAdkNR0M7F",2660250,1069,FALSE,265967,35,15,25,25,20,3,25,40,20,3,2,2,5
"FqOeJUgAQyzZ6hLhwLrHcBIJAk","WjZKa7zDzvVeGp2VUUqDllqR4H",1088899,426,FALSE,249544,60,30,25,25,20,3,25,40,20,3,2,2,5
"frZ2bwzNgSzRBcgQQbgiSmW6kd","axCDqHRmlkTJWDLLkMYkK0Dy3h",83774960,202,FALSE,238450,35,15,23,50,20,3,25,40,60,3,4,3,5
"FST4A81Yw8sYDZnl0TouxDCbAA","zcHi3B5iB1GdRsCVe1gxWiQbvL",2260834,492,FALSE,225887,35,5,24,26,20,3,25,40,20,3,4,2,5
"ftJ4ta4cSFcQPmQOQwI4xOR4G3","ZGxUPPpcdpOn3Mj2UiZhyKsKv1",752809,588,FALSE,246343,35,15,25,25,20,3,25,40,20,3,4,1,5
"fTOQg95n47LbfSJ8fyyOMftSKa","1oZ4SEvXAq1ET15zyH34FiAYyT",6864082,1256,FALSE,291399,35,15,25,25,20,3,24,40,20,2,4,2,5
"ftPwAEiIq1Tn0taF8TqhP4CTqL","5ttQvyQClQPTzzPu1z1Gk9s1g9",4110493,238,FALSE,287458,35,10,25,8,20,3,24,40,20,3,4,2,5
"FUIglH8GQnZaeh4VgJdqW7Bhav","b1BP2A2dK2OtJpkVvfukFcLT67",1024629,619,FALSE,216829,35,15,25,25,20,3,25,40,20,3,4,2,5
"FUxvommz2eMhwg2lXDWTK2wRKg","7ziHu5R4ZAcb8Dx8OUK94XV8m0",4735600,1105,FALSE,299349,35,15,24,11,20,3,24,40,60,3,4,2,5
"Fwbyjqtflcbx1i9TGG1rrRMfrK","1hUYnwt4xbh7udw3PyGdAwL4o4",3025034,1052,FALSE,296993,35,15,25,25,20,1,25,40,20,3,4,2,95
"FxOtd3CpPxwV4Imx3ANVueTMDL","PYP0NqW2S0Q4W9fbdCsYOnbb8r",102269634,1208,TRUE,301003,35,15,24,26,20,3,24,40,20,3,4,2,5
"fYr9ejYvD7KEUUbg2MPmo6UWBb","1zNat3S3ivGTuAXZEcd5nJWC75",4840241,892,FALSE,258610,35,15,24,26,20,3,24,40,20,3,4,2,5
"fZLiwcpUx8PVfglW0MkZQ56eem","WtRKHxhUdaFzAhn8hJqNRUx7Ml",2266018,593,FALSE,258976,70,30,24,26,20,3,25,40,20,1,2,2,50
"FzOfnpvHaAMjLOkeAqBhk2xJT4","ZjgcL7IVxK9wistZTgEdRAav8C",327052,12,TRUE,301000,35,15,24,26,20,3,26,40,20,NA,NA,NA,NA
"g0zKJKnvvjN2O9Q3ALE89I4x5i","p935OFjJvYvzJJ0YX1SuZAOQAd",5361682,1249,FALSE,197876,35,15,25,25,20,3,25,40,20,3,2,2,50
"G4SKWWOzux3XMBHmcoj7cXSuxr","vuW50m8wlQbZPKrmuvZIKjzH4c",3493897,786,FALSE,219175,35,15,25,25,20,3,25,40,20,3,2,2,5
"G4SxKx5YTNUhXJ2Sh9Wzz8kF3n","FRq6GdltWY5wo16hQoKKwAuCL5",3572745,597,TRUE,305784,35,15,25,25,20,3,25,40,20,3,2,1,7
"g5DtufOhpy4aBxhAZv4wOVd83C","p1jtYn2p3lGzyIQ9cwE31R0r5H",5959678,1106,TRUE,300998,35,15,25,10,20,3,24,40,20,NA,NA,NA,NA
"G5RYNpYfhnIAGSqWrNwLtNhgza","tMgmaNVZaQ6BI6C3lP3G3AsUUI",333439,12,FALSE,297585,35,15,25,25,20,3,24,40,20,1,2,2,5
"g6BLT8YOk8QSYJeWMvxmqRuP5l","sO3DFBeYwOH93EKCnnt0q4Rv8V",2484705,1139,FALSE,241984,35,15,25,25,20,3,24,40,20,3,4,2,5
"g7PaxGhTv8ABYdFu2c3jfa65yc","QdZf3tWt4Yqte5te8zjtcpwTuy",1385229,84,TRUE,304012,35,50,45,45,20,1,24,40,50,3,4,2,NA
"Ga9xTGxcHr3RyguETOjnXU43i9","Rq3D9mI4m5IffjNOA2btaFBJ8F",4405145,298,FALSE,262016,35,15,25,25,20,3,24,40,20,3,4,2,5
"GAD8jKgDiKpXp2EsEW02lba1Rc","op4YVQazPGSoi3IOiBrS3OFeFT",1905712,259,FALSE,177212,30,30,25,7,20,2,25,40,20,3,2,2,50
"gbxXNf6ruFx3yjbtMUcrtiqZQ9","rNfsGIo2vmN8uHk2mu54c1cT05",6514926,1236,TRUE,301281,30,15,25,25,20,3,24,40,60,NA,NA,NA,NA
"gCWSpXbkxOlT4iGD2DlAJ8QlfS","W7jp53blyyDr7DOlOs9kssuzLT",6124310,1243,FALSE,254513,35,5,25,50,20,3,25,40,60,3,2,2,5
"GFajfPHQkQhq53gi8i0m38oHV2","raSfotQccMLv1rvC3cWINQmfO4",1706470,692,FALSE,299864,35,15,25,25,20,3,25,40,20,3,2,2,50
"gfnBhWq3YmaA8HbjyrSpzcpZjG","1tpBNuOGNjIHoH5Hk3pCJRFolE",8229473,667,FALSE,297496,35,15,25,13,20,3,25,40,20,3,4,2,5
"GFWv7nBJ56e3V4Faa04UPqWnCV","HR9j0a5NcHLuVNQlW7tPcT8W8B",4337246,1060,FALSE,258276,35,15,25,25,20,1,23,40,20,3,4,2,5
"GgXSGslxXh29W7iwgPLRIb3FBX","qRvyvc91z7Y7gDv58i3PPsGJMv",2325400,483,TRUE,301008,35,15,15,25,20,3,25,40,60,2,2,NA,NA
"gh3SYV1huEYVPNVvuBTNgQTnDo","UgKXkVijjNcaHbKuhcndVTpOGl",2577463,173,FALSE,222137,35,15,24,24,20,2,24,40,20,3,2,2,5
"GINpFRn3rCrvpPEsz7p1OBYBcZ","h4AnnVQWn3eeHo5uhsn48IR3wH",1730225,186,FALSE,185461,35,15,25,25,20,3,25,40,20,1,2,2,5
"gKscdQH1DtVhP3H8uNhvddvVzi","gAkttyWfPjzh7ONGwkhZYgCxlm",2216423,175,TRUE,301008,35,15,50,50,20,3,26,40,20,3,2,1,50
"gnepj9g5sqOu7VwfF117AYROl8","m0NvDl0QMFSVFRclQY71mJFrIj",3353068,1255,FALSE,155797,35,15,25,25,20,3,25,40,20,4,2,2,5
"GNMFsO7EtFIppiEBH1xdFjuOIn","6neJblsA0gLLk7NAPcODhdshBV",1754036,64,FALSE,295000,35,15,25,25,20,3,25,40,60,3,2,2,5
"GohjdLkJMcrh2aId3tIfRgoVOc","2zFtkkHHutwoPXCXIakcP9iUxs",8995354,1257,FALSE,274801,35,15,25,25,20,3,25,40,20,3,4,2,5
"GP3UPsOTnyA49EEF0PaBgBQYvt","nu1KiQXPr4Hxth3juDXzuZPTau",5295631,1243,FALSE,208311,35,15,25,25,20,3,25,40,20,3,2,2,40
"GqJPAjh3eLBJqyfmx0yz9arIot","FKcaj0kBu4tCw2qyTJOlqrcIb5",3095486,1087,TRUE,301004,35,NA,24,26,18,3,25,40,20,3,4,2,NA
"GTvN3N3y7Wv9tPwt4ZRROIhLAp","2AjNNlKEOOlMrRsW2uwVBIsnvG",2225739,1038,FALSE,249790,35,15,25,25,20,3,25,30,40,4,4,2,50
"gY6qXF9uvTh4pZ4W0xiBwAUrnA","ThYVpHFXnfGtGj5QH8FDpnhtbb",8160194,1831,TRUE,301005,35,15,25,25,20,3,24,40,20,3,4,NA,NA
"GZw2kibaBgCnhdwYw8fGpsGF2o","JF9lX45UecycV9F1rK9u6t90TV",1532521,110,FALSE,283344,35,15,25,25,20,3,24,40,60,1,2,2,50
"H0RD6MGLaurVZezd7QxB5xCYeN","4pNBBl1YNzM88ho9iBqVh6btm5",6699316,1009,FALSE,215453,35,15,24,26,20,3,24,40,20,2,2,2,5
"H0YvoGWGO0v2xohnWtK1djejdv","4GdsIR1olVS3Ju0V0RPcDpHA1g",2736266,197,FALSE,303966,35,15,25,25,20,3,25,40,20,3,4,4,5
"h1DFEcojy0ktBBlwd2GRDmJb8T","8NIHKdlNV7I3t4SmI6LfrzHD0Q",465184,26,FALSE,292106,30,15,24,26,20,3,25,40,20,3,2,2,50
"h1h9yKGTbSaRLwt1CBpGRDCZMw","R9gssF3zYmMZdmfek23FKwxx0o",4371274,1241,FALSE,168856,35,15,25,25,20,1,24,40,20,3,4,2,5
"h2VNlqQxqZxA0pyUz4nNJeI8Ri","nXPKQ6Y4j1PZNPa8yWoISIrrbb",1973453,970,FALSE,242693,35,15,25,25,20,2,25,40,10,2,2,2,5
"h5gy3A6r5c9qbLvdDXi7YCvOSJ","jaMpIusgk1sURb15NaC77aSAQ4",3157983,714,FALSE,241871,35,15,25,25,20,3,25,40,20,3,4,2,5
"hA5ZY6FRqDKGFwhziyVLZZWhoZ","fwkUDwUKbBQAdtD3AgNGOprUP9",2598964,1076,FALSE,215159,35,15,25,25,20,3,25,40,20,3,2,2,5
"HbdrZHD6UiidrG6X6oFefKIGai","f5bpQ2A90NR0LyKdNkQ0yJd2lk",1062768,437,FALSE,269448,35,15,25,25,20,3,25,40,20,1,2,2,5
"hbskQIWdB65l7ZHYpQShThcIpB","HWu348ESTKnz8xJCt9i5sCRH2z",11767365,651,FALSE,258205,35,15,25,25,20,2,24,40,20,3,2,2,70
"hBxFsi4BBP4y8ON9BpHYMuPuWF","ICVrD1KHCmhoQv5SeMdSXSsf6t",3643178,884,FALSE,244733,35,15,24,26,20,3,24,40,20,3,4,2,5
"HCwzWPkZ5RhLI8LbhK4X78Q9Y8","kB3lhyhrihQOBAVUxOtEL4xqko",317467,12,FALSE,257452,35,15,25,25,20,2,25,40,20,1,2,2,5
"hCzYXSHjabhMOfRyE86kH8HdGy","scyVddpk8HjN0meTj0ZrnblYzc",5020943,1243,FALSE,244677,35,10,25,25,20,3,25,40,20,3,4,2,5
"Hd1ibG0aTVHjLLK6sdtTv7SGX9","mYZ9GlRq6SLPxlGYR1xWVwU3sX",961381,24,FALSE,200122,35,15,25,25,20,3,25,40,20,1,2,2,5
"hdLFDaobFoe3KtfxpeotJ67AkU","dwgaYiGEUjSOnCVws87OHYDbnk",2683102,1092,FALSE,233053,35,15,25,25,20,3,24,40,20,3,1,2,5
"hEAxK2SeuXfnbgYDAEH5L9UIIC","SACBfeemoGD2XclkQ5F3yZoBjZ",909924,138,FALSE,105487,35,15,25,25,20,3,25,40,20,1,3,2,5
"HF5VR6oRd7r4OJUsEstnwrXbO4","YBZO2tdGt3te846hbP1FKlYE9J",722907,42,FALSE,253242,35,15,24,26,20,3,24,40,20,3,4,2,5
"HFNzl255Un9doolMCZ6wyfSRqd","0KEKf6UtnOSKOtDKokLA2SPPOP",4133310,1143,FALSE,181595,35,15,25,25,20,3,25,40,60,3,2,2,5
"hgg8ZgkkwStUBCR9LF7nhy6kCa","3ENbykPGUhgcxNZlN6CutpfpgR",1750807,112,FALSE,285479,35,15,25,25,20,2,25,40,10,1,2,2,50
"hHTV1CvDkQzQwZkaouFBjlQsCt","IPmzpXd8dssFXAyYGDIdNO4yl9",2324594,1015,FALSE,203317,35,15,25,25,18,3,24,40,20,3,4,2,5
"hJLvFwjJG2MZgjXVsndV8ZI3pV","zhOhrpU7bGIrYvaV7jgHaZVBgT",723813,603,FALSE,211191,35,15,25,10,20,3,25,40,20,3,2,2,50
"hKa7up3te4JwSeTfHAAvCIasKL","VNSsLojvEFuEsKWuWnb159otI0",1091421,962,FALSE,206440,35,15,25,10,20,3,25,40,60,3,1,1,5
"HL1g0VVyYbovCVJ3fJonKWSqSG","AKI8S7MIOFhTcFdy0rnrHGDP6b",4658913,1110,FALSE,253669,35,15,25,25,20,3,25,40,20,1,2,2,5
"HLAoIBWYsJovzgrRCrtn70sDHO","uQ5BPCAAOTr5an7AJA741xJTQC",2945518,1047,FALSE,158532,35,15,25,25,20,3,24,40,20,2,2,2,5
"HLufmUbJLknFe2opGF5zU7QBhA","e9fFzUns33x57ELAmSoE55KFHN",945993,125,FALSE,158242,35,15,25,25,20,3,25,40,20,3,3,2,5
"hOu3JpzO7RN6aWPratW1dCGOas","yi9UOi4w56nAoUdVdEbBB8kfPm",1832498,81,TRUE,301280,35,15,25,25,20,3,24,40,20,3,2,2,NA
"HQGLoN9zobSkK9xUe1AWhNiTHA","FjzZzfRJ0B8ZcroTnp1KphS9tF",4534111,1276,FALSE,206385,35,15,25,25,20,3,25,40,20,3,4,2,5
"hqLAGAyhq7EFgGjpdbXcOLu35U","wnKtKRaejEz3k9vW7CTPsm8NQR",4725391,1229,FALSE,191730,35,15,90,15,20,3,25,40,20,2,2,2,5
"hQT5qwzLOfye5mgySF5RNhubRq","xCoSA0LQh5GkPq9FfjxWhvm1Kh",1936597,168,TRUE,301003,35,15,25,25,20,3,25,40,0,3,2,2,9
"HQz4fdG52svMXrjNScgDccQUY7","O0V8ctMbG8Ez2ribgRQnzt3SHA",1429401,375,FALSE,260486,35,15,25,25,19,3,25,40,20,3,4,2,5
"Hr34hxKOtjYwAIdlHOsasx9HWc","yIfI7CUCqIT9YCjRysn9UINNFy",1859794,151,FALSE,209785,35,15,25,25,20,3,24,40,20,3,2,2,5
"HR8GLnb9ULna5HmK8XWzq1iltp","SP6ZO0uLEqC7mkueW5v7yxduqm",1388302,104,FALSE,227504,35,5,25,9,20,3,25,40,20,3,2,2,5
"hrl5vGZXCklRXezUQQ0TEF3w6S","eLJTUmJoDgPKCSuX2a8LPtEUW3",1099127,588,FALSE,236053,35,15,25,25,20,3,24,40,20,3,2,1,50
"HrLvqUNXtrsy1Q00scILYOcnsB","Z3pi3y2KZ3T4BmAyhfLAWos1J9",3585045,1211,FALSE,277064,35,15,25,25,20,3,25,40,60,3,2,3,5
"HSCYYb9oNISwgDDgWm0GTv3k64","HzdV0zL65WpGiiYHhuAbHrPIi1",2445054,1221,FALSE,170121,35,15,23,25,20,3,24,40,20,1,4,2,5
"HSEykehyYtUOjwlhIDNCOuwJt1","1NcjULyl0MxzvnZwZ5ezZXuxpQ",4459877,1242,FALSE,181924,35,15,24,26,20,3,25,60,20,3,2,2,50
"hTMQyo7gjMGk3SayG9EGaYBwRO","DdKfkRhRxUMkJhDIscLtgQ38l2",621278,21,TRUE,301002,35,15,25,25,20,3,25,40,20,1,NA,NA,NA
"HTpoxAw9Jdvr55Z98AspwS1HHU","VKtOMBR2AMBvWZXSknavIzzCZg",2109092,744,FALSE,253429,35,15,25,10,20,3,25,40,20,3,2,2,50
"hvcd0cbU8MZ5vJtyqFKnT8j6uw","kSHfCNbrPAzTjwlhNBPLmHUF84",2941811,1089,FALSE,248121,35,5,25,25,20,2,25,40,20,3,2,2,5
"hvTBViztbHtb07WOX3r4pWruXo","PNHkHs6xhxyGjK3YbuxHNqYhc5",536635,91,FALSE,156784,35,15,25,25,20,3,25,40,20,3,2,2,50
"HWBm6tegoWotXXnTW5q8vMS369","JbDPOIoqwAN2ugwefw2iNuKBjS",3896738,329,TRUE,301000,35,15,25,25,20,2,25,400,200,1,1,1,10
"HwhGv8QliiR2VKfmgVLuHDZHZj","YHJjfUkCxd77tadOUoVXkIdupx",356276,12,TRUE,307852,35,15,25,25,20,3,24,40,20,3,2,NA,NA
"HyJc7TjgyCophlEkVTTFrv9HoR","hW5Sll4jpnl7DRCxZrfj4t84Y7",1094167,375,FALSE,169867,35,10,25,25,20,3,28,40,20,3,2,2,5
"hyjNimqfAh5XHiwTfwIVqE4cOC","6VsJ4g3crpCLKCeeABvRTBcLOp",3216142,720,FALSE,140828,45,15,25,25,20,1,24,10,20,3,2,2,5
"i2hG0N8FILM8UyY6wC1oqmo9b2","Zd8kA5Pap3osVfpydAe2qtLJH2",1914116,212,FALSE,208071,20,15,30,50,20,2,25,40,20,2,2,1,10
"I6Es8DBY5knCldZUVFdZRC00G4","1lPykswvMIQTDZr5UiypVs5Zte",6821265,1188,FALSE,224932,35,15,25,25,20,3,25,40,60,3,4,2,50
"i7B3WIPFzRStnjwIJmJdH93XRY","kZGA3JCr0LYnyFw3YQYyr43CdN",1939289,436,FALSE,149929,35,5,25,25,20,3,24,40,20,3,2,2,5
"I7nZcdE2S9Dmp3BI5qyTJlhUun","UTax6mS4TQX4gkQWAgQIJCpy3O",3755068,446,FALSE,293586,35,10,25,25,20,3,24,40,20,4,4,2,5
"iCkWKvT3K2aBEjSHopQpyrHIB9","Mob2kyx7jjrgelrOiURCprrLPd",3386013,1234,FALSE,138390,35,15,25,25,20,3,25,40,20,3,4,2,5
"idaMXvcDc2YzUek4u0Wkc37ixX","0S9v7h2VYCKtAHU22FolqsDAm3",8069962,1243,FALSE,236662,35,5,25,25,18,3,24,40,20,1,4,2,5
"iDhXe8PAtvOIYA2m9oSrfuWZJ8","1QavSfxxmddKOmJM0BkYt9QPul",91803831,1232,TRUE,301001,30,15,24,26,20,3,14,40,20,3,NA,NA,NA
"iDnyG3AOgkjmiZ8VfoCUkrueyd","H2ZRME05GXiCIS2zWnykSEPqGy",3046786,1201,FALSE,173634,35,15,25,25,20,3,25,40,60,3,2,3,5
"IeotI4nBi34Gud4fq7bwhQfH6B","En5tSQ2pycoZGVx6WHVV03uiuK",1553036,634,FALSE,285491,35,5,24,26,20,3,24,40,20,3,2,2,5
"iesnwRtMXcMtbUBj7xfIku8qV1","DvuT5BddeYK9AaJ3IM4zdw3WYg",4219457,1227,FALSE,296660,35,15,25,10,20,3,23,40,20,2,2,2,5
"ieXwfYfgtoQXQdgDaUKsekis78","gKt1RHJgmjuGoPq2ml1NhnG4Hq",2400842,1036,FALSE,252135,35,15,25,25,20,1,25,40,20,4,4,2,100
"ifCrMD36sCeJQPvhdMgbDLQByb","RPAmDx6CJn5q2ZQFYlIHTbREqy",3569192,1191,FALSE,175655,35,15,25,25,20,4,25,40,20,3,2,2,7
"igglDOQ85wWOorhpUwD2mbpaP0","2BnKfZORPleni515tI7SxLKEYb",3659504,1225,FALSE,267618,35,15,25,25,20,3,25,40,60,3,4,2,5
"IhxWAJv7aYkMvXVgwI8AapfHc8","nSCNaikZZEnIRaIfXy3lDNdOhh",4112941,1246,FALSE,239093,35,5,25,25,20,3,3,40,60,3,3,3,50
"iiSv0HzZaMEEaTcPPncqosNWYy","8wLTMxSuDgrmfabckQsHhf6dma",284862,27,FALSE,163834,35,15,25,25,20,3,24,40,60,2,2,2,50
"IiXfgznmQCjwpXA4vFl8wX6xdc","3NOCtZg7hanLnJ7uN4vvgk3Xg9",3746988,873,FALSE,228901,35,10,89,91,20,3,24,40,20,1,2,2,5
"IL7x7pDBM0tU2dyMKplSbcVz1j","PbeO4M6cD7Tmx3VWaDrDF9uCb1",442755,26,FALSE,278944,35,15,24,26,20,3,25,40,20,3,4,2,50
"ilg2U9gEQsq3jMkfnpoMFVN5No","d4yaKzSKhZQWmZ5vQeQ5xAQG2V",2491244,624,FALSE,209533,35,15,25,25,20,3,24,40,20,3,4,2,5
"ILsXehYteFtQ43VyuCquikiPNd","PaqEUqUXWfugec22ADpsK7gV5r",394045,26,FALSE,259494,35,15,25,25,20,3,5,40,20,3,2,2,5
"IN2RQEdiPIh8QVGLtHBhzprQjj","ZzVCNkS1wyQANKZDWpR9fuYvWM",1993310,643,TRUE,301002,60,2025,25,25,20,3,23,40,20,2,NA,NA,NA
"inPa9DudJPazlARdHosCIP27GA","EUPFV9e0zs4m1Y6PlyGvOJazwF",17071954,1243,FALSE,300823,35,15,25,25,20,2,22,40,60,2,2,1,5
"Iocj0PieH8aX74dySV183W5tkZ","tqUUvj2DNxXi6kYn8xDXr9conO",1088780,597,FALSE,179121,35,15,25,25,20,3,25,40,20,1,2,2,5
"iOyFRrczACFTs8Vlpt7YKVhbbz","TbMNWKwm4Gxf3sOo8rsLPpFF6R",503097,26,TRUE,306256,35,15,25,25,20,3,NA,NA,NA,NA,NA,NA,NA
"ipONUG9W8qcXYhFqAzQuuvSBSM","omx0Id6rftC0GHfUfZd2zauodb",3742509,831,FALSE,259675,35,15,25,25,20,3,24,40,20,1,2,2,5
"IQDF6OnPDDYSBeSpjc7TYa3Oe5","K12qPGxKuPAecSazq921vO9oVi",4340091,1243,FALSE,243926,35,15,25,9,20,3,25,40,20,1,2,2,5
"iQFHfllELMzL4arNqC8Ngqt5Ce","PnA29cDwxdz43yEZ48HkE6rCwk",3755368,1242,FALSE,209089,35,15,25,25,20,3,25,40,20,3,2,2,5
"isTkiRKFuDcosqid7kv1zeWlPx","0vbbTSAq1Um3ZtR9tgWFB3VSzP",4167991,1251,FALSE,213457,35,5,25,25,20,3,25,40,20,3,4,2,5
"IT4iM82O9Gcgu0l8RpScHzX5PP","mUHzFbS92nAjoN1V5VkQ9fEI8H",5612332,1243,FALSE,267781,35,15,25,10,19,3,24,40,20,3,2,1,50
"iUnApjveqQC9TznGxscuGLZPqF","0N8t6MNp1kYzOHoJzyIk2IUy5S",1397289,118,FALSE,236573,35,15,25,25,20,3,26,40,20,3,4,2,5
"iV4V3aqPi2me7QaF9WUsZRROeC","3aIQ50Rc4FL4i5Gmj5BSa9psN1",4766104,656,FALSE,243768,35,15,24,26,20,3,25,40,20,3,4,2,50
"iv7yNO861gmKn98tqGAQGjLWJR","LqLjNvOzC0TKIHBjSri4i2RtiG",2365316,473,FALSE,299395,35,15,25,25,20,3,24,40,20,1,2,2,5
"iVjTLikNhjlojBe4X3QbJOUzQM","tr3jY0rmcxemGIN9bLGm0w9c7Z",2518694,780,FALSE,207024,35,15,24,26,20,3,25,40,20,3,4,2,5
"IvMXe4y3hcScppA56WUBi3EoZP","7HQPmhcJyommWhimBKFL6kqPd1",4859663,1259,FALSE,284287,35,10,25,25,20,3,25,40,20,3,4,2,5
"IvwHdcZBgeKEhRa931uZnAxPes","c9rAEBvJ8lpkZI8MgQtQQVyr62",3627624,616,FALSE,290667,35,15,25,25,20,3,25,40,20,4,4,2,5
"ixDR2QM4PTWqkrDOKup0my6pT3","qH1Zh28QhxYXFbMrloJfHp5sHe",3980390,1192,FALSE,258702,35,15,25,25,20,3,25,40,60,3,2,2,5
"IXw79xhZk9n8AbF9W9tuRaHyp7","uWV78TUFYnRvPcI3TxCcLRShkI",4300596,1202,FALSE,192715,35,15,25,25,20,3,24,40,20,1,2,2,50
"Iy7qNJcV3MsqJg9Hs72sYZtk8f","xdtDL8ZczJJ4K5RIZ1LuVanXU0",1952572,647,FALSE,197071,35,30,25,25,20,3,25,40,20,3,2,2,5
"j109WTRUPLYK3rJetfQBUX0QTN","fMSmGM1R3ht3rceLopOySQkl7e",1360200,387,TRUE,301025,35,30,NA,NA,NA,NA,NA,NA,NA,NA,NA,NA,NA
"J48hnpiVj0E3WZHXP0VXikAwB6","RetZXIJqzCbl0e8JCkwfjvnGeO",168776636,1256,FALSE,269330,35,15,25,25,20,3,24,40,10,2,4,2,5
"j4VhkvELHsuAIxNFXiKvsZuajR","h5ycRamah1GWXbFv36CQ6JCSvI",3406010,670,FALSE,295894,35,15,25,50,20,3,25,40,20,3,2,2,5
"j5aEESnqsN7ljPSR4iSEDpegOj","IL981Xo7P9L1NNTdsBoMog7U3M",3121239,1016,FALSE,188691,35,10,25,25,20,3,25,40,10,1,2,2,50
"jafDtmT4lgKaideNHTnlw5ho0O","ReCsZ8d9Ro7Y0GGb5XNfFbAFW4",102529263,113,FALSE,165859,35,15,25,25,20,3,25,40,20,3,2,2,5
"jBDnMn0ty1C07s5WEoLoVmC2vo","DKBNv7FMRbq8sKF1AltLwjvJJh",2806452,321,FALSE,210519,30,1525,25,25,20,3,25,40,60,3,2,2,50
"jCsYPMCnv0xMnIn2HABVzP9DJ1","Li5Z5zgi9Bcu0Syt0tUXlBY24I",729525,368,FALSE,281479,35,15,25,25,20,3,25,40,20,3,4,2,5
"je3UJMp4v3PznFmdWVHilhEtJ5","i0Xlv1i35r1L4MMAvILxwnGAbr",413963,25,FALSE,258306,35,5,25,25,20,3,24,40,20,3,4,2,5
"Je3vCtUT0eNXBHiHVjg47Jn4RE","SkwKwPFQ79tmwvQ03SMfAlRwUn",4971927,1175,FALSE,227142,35,15,25,25,20,3,25,40,20,3,2,2,50
"JEEdmQw3kwn5WURPkwH6faxcUQ","HcK5GpawUcE8TFaT4z6KaNZEX3",5053684,1244,FALSE,186595,35,15,25,25,20,3,25,40,60,3,4,2,5
"JeTTub1sxY3X64KhVNxWvFvJ38","gX6Me9ddkqvkvAGmKja7TUJU0s",2130527,439,FALSE,238966,35,10,25,25,20,3,25,40,10,3,2,2,5
"jfC0x4PaO8M6Ubfh6vsf8nNn4Y","ihVJnc1mpzLRbxtATBlLY3AW3Y",1016836,60,FALSE,177585,35,5,25,25,20,3,29,40,20,2,2,2,5
"jglulYgCeWfSofaqgo17ESML44","nsjb4iQtvZVv5z71L7RjNaYcgg",5973985,506,TRUE,303861,35,15,25,25,20,3,25,40,10,NA,NA,NA,NA
"JhU9w65y9c80i1xqBMcascvEFB","8GRt3HemoLWxESKlKbcOR98pCT",2316540,279,FALSE,177954,35,5,25,25,20,3,25,40,60,2,2,2,50
"JI0kypdQwT4vXupM8TZFF0byqQ","eaOEk3McF4IVo8kCi6u0Wsap5Z",272148,17,FALSE,195292,30,15,25,25,20,3,25,40,20,3,2,2,5
"JiGuMDvD3I1oTHPnTOw4urCqny","TI8SQbjhGLWqehnDeRH44b9jhd",3409963,706,FALSE,263406,35,10,45,45,20,3,24,40,20,3,2,2,5
"jIHGvL7Ji9VA77twpO9oyWEKGz","RKu941S5s5rZlxuRKfT0G0Mkdx",332032,12,TRUE,301003,35,15,50,50,20,2,25,40,60,1,NA,NA,NA
"jiJShsIRy7nU8rtjLkZ0eVRMJO","5HfzaLyUppl5Ou3aXtB9RdBXxZ",4537979,1134,FALSE,140375,35,5,45,50,20,3,25,40,60,2,2,2,50
"JKa3dmSzh727VaNln0dbDGdnps","0nYdE8LUQtSkDBOdaSwzhMN4ic",232231,27,FALSE,100286,35,15,25,25,20,3,25,40,20,3,4,2,5
"JkXCkB2yrXu4pYdC7ehnaV2daa","WsinN4CIhouCY4AsCJEJi9puEv",5273534,1243,FALSE,273379,35,15,25,25,20,3,25,40,20,3,2,2,5
"JNaOqW0sdeRT0AltcxBBCVCftU","uY665UTGdp3iahefU1NVRsdh7c",4195071,1236,TRUE,301013,70,60,25,25,20,3,NA,NA,NA,NA,NA,NA,NA
"jOgweHhaXBCfs9ZvBiDK8zaHkc","aEel8tKJpqcWyrXrdNsSi9FpQ1",3112510,793,FALSE,283257,35,15,25,25,20,3,25,40,20,3,2,2,5
"JOwLfcaKlfmYmKxZWtsmcUTGmv","kDJQtIbxKq94Yh5MvSV1syt0xU",1502710,124,FALSE,262876,35,15,25,25,20,3,24,40,20,3,4,2,5
"JQ2ojLGRUgAw5wD2FjyffCUoZy","Tvw938msEAZwrRNfEfeEMk9MSs",16818965,1225,FALSE,298157,35,15,25,25,20,3,25,40,20,3,2,2,5
"jQR3wkyL8ZEgTUcBCdQtv0426r","YreRv0cyuGosT1Yve3baK6A58n",2539783,1192,FALSE,196471,30,15,25,25,20,3,25,40,20,3,2,2,5
"JqUcwIC6WG3decNxN39bOcSzrr","nC4wZOc2MoatuFJ9BLJjqMqMYd",1016321,152,FALSE,242265,35,15,25,25,20,3,25,40,20,1,2,2,5
"jT8pOv4cPWJCbyRg6yhAVzQkNK","dagLCPPf6AXlcXN4aj4Lqcj4n2",1299321,106,TRUE,301003,35,15,25,25,20,3,24,40,20,3,4,2,5
"ju1TsAsHtqnVji0SV6CozMEiqv","3muD9N1vj2CDMHlUxRojCnynWY",3529320,1143,FALSE,203054,35,15,25,25,20,3,25,40,20,3,3,2,50
"JV9NgLh9DUUn4yI4csL5ZqLVXM","gmELlNdZNrc0FIa875eu436OyO",2604310,749,FALSE,187882,35,10,25,25,20,2,25,40,20,3,1,1,5
"jxKp9sXExdF7aXgIV9d4e9jje6","M6GZVlfza7D6NcCbsSTh314Cyz",3911411,444,TRUE,301002,35,10,25,25,20,3,25,40,20,3,2,2,5
"jYJDOtwXELskpzpQLdnJsFfkIx","iI2Cn0EsqKRlwlQGohFbezEdeU",3650761,706,FALSE,259132,35,10,25,25,20,3,25,40,20,3,4,2,5
"JYYC1IGZ0p9P0RBch6lFeh7TVZ","hNNzH3rI0WWYBw9A2N0k3yV6oN",2250496,624,TRUE,301000,35,15,25,8,20,2,25,40,20,1,2,1,NA
"JzwY0KAS85gMUiakQVuRl6MWfG","S9EChOTZjY1QMw06SPvJfjLnTn",9719237,1253,TRUE,301009,35,15,25,25,20,2,25,40,20,1,NA,NA,NA
"K2JsLXQtZvq01NcCtDjznMDmhZ","8ouLIW9QrnUHZXnCWcmcDJqg7h",337229,12,TRUE,301004,35,15,25,25,20,3,25,40,20,3,4,NA,NA
"K6zPyHeMQvej7tfVjDRrQIXylO","ctFhKE2Clb3PeXKEzlnul34Oqe",5545066,1243,FALSE,175100,35,10,25,25,20,3,25,40,20,3,2,2,5
"KA63lXcshtVitvuSPW4YfZr9iH","SrK4nMExHJ7JPusbAFIlTaMBrS",3430074,829,FALSE,105472,35,30,50,50,20,1,25,40,20,2,2,2,5
"KAUdzNddDclwvyjVTJpfMKf5Cm","qQqa2IIvKrODDzjKqUO3Rqd164",265763,12,FALSE,244361,35,75,25,25,20,3,25,40,60,3,4,2,5
"KbIsmVBprC5DAqkNS4zZtaO7sp","abvXZAoDU6OawgGarN5dujiWYH",2467568,520,TRUE,300999,35,15,25,25,20,NA,25,40,60,1,NA,NA,NA
"KBKSEISJStlJk678ZSnqgWNSmF","ha2IvelpnYgVXrPSLQTlKjS9Na",2050607,985,FALSE,257334,35,15,25,25,20,3,24,40,20,1,4,2,5
"kEi95gLf89SpH2XqgMwVF5caGn","EUN8VkeFJIaPF2NqzwXvuqiNoR",1910591,378,FALSE,223605,35,15,25,25,20,3,25,40,20,3,4,2,5
"kF6QGzg9szxOUJKdkrf8K4PZJI","IGpzgaoQFmxxdKNsQvJCT4bCQy",3129207,736,FALSE,254801,35,15,25,25,20,3,25,40,20,3,2,2,5
"kg2HKYpGZVTTMtVe98ijKrGUHb","7IniquEYysB72jm9JmC94hY6fs",5671068,1189,TRUE,301010,35,15,25,25,20,3,25,40,20,1,4,2,NA
"KGkv97QC8oWRhOgF9rCbDQ5gZ6","XXTqnW4IoI40adruzPvx70amad",2012786,1080,FALSE,142154,35,5,25,25,20,3,24,40,20,3,4,2,5
"kK7WGi0XuEedWzaOlSaBvm4DWx","I4axPXkBwmoV2Hvf7EBVts899H",3136520,779,TRUE,301011,35,15,25,25,20,3,23,40,20,3,2,2,5
"kLBfO3bhpWv8FGFSxkjCUJJj6k","jRWHEFYbcItf1zaT58PCbVF6UT",3947410,823,FALSE,278774,35,15,24,24,20,1,25,40,20,3,2,2,5
"kmBMWly0MCKeNQboBhdaNkJGqu","MdfuGUmAG87H3hsZBZNIPLbqlR",2946601,1167,FALSE,145878,35,15,25,25,20,3,25,40,20,3,2,2,5
"KMIQRSeuwZcln2nE1ggKRwVYsv","EJDmxeFAOqCbDwIosmguiRTRtc",2893801,1245,FALSE,179865,35,15,25,25,20,3,25,40,10,1,2,2,5
"kMREgXdoVv8SqaPMugfqg5sC44","1lLwq4OHlhT5WPuKJI5lwT0qEs",967444,619,FALSE,163709,35,15,25,25,20,3,25,40,20,3,2,2,50
"kmyYVt19kPw2unD2cQT0iFsqGS","LTAkJFBaLbBlLcTMwhIaOrlZ2q",3756837,249,FALSE,261731,35,15,24,26,20,3,24,40,20,1,2,2,5
"kn4qxQZKifWlIYf4GSy0PAJyuh","7lw6xtE7ezILC2W0A8PTWj91rT",24555773,715,FALSE,194540,35,15,25,2520,20,3,25,NA,20,2,2,2,5
"kNECVA6KZTsSXT0qFa6P7iZCKg","70TbXQV5fIAarD4EoFmga3q7s2",624976,39,FALSE,276444,35,15,25,25,20,2,25,40,10,3,4,2,5
"knlk5VPeN7YnFTP5eGID2P8ShK","dRFG0qZMKCWHb0N5C8HA4bX9yO",2132589,171,FALSE,263644,35,15,25,25,20,3,28,40,20,3,4,2,5
"Kqu00ZKz9uU9HN4oJJb4oCPQu4","GnQZypnKqaU1vR9qkZA6KkMvBX",2345658,409,FALSE,299612,35,15,25,25,20,2,25,60,60,3,2,2,5
"krUzu4Lt71lhyTOT1WLQGrAL3V","fyqCABm12y4OhgaxM1hEoV5QRk",2646716,79,TRUE,301018,35,15,25,25,20,3,25,40,60,NA,NA,NA,5
"KrYpfKRJAsAUhrGGrSKfONafMv","bNUkHcCmvUA9mZUw9Ix5NkEIDl",3460155,1226,FALSE,214525,35,10,25,25,20,3,25,40,20,1,2,2,5
"KsHX3HjyE0H1UGov421TVs0Lx8","7tqRnjJCZaRS8Ag6Xk7kCu6Xip",37471087,1210,FALSE,189496,35,15,24,26,20,3,24,40,20,1,2,2,5
"ku2CfmLzD9M7QSz1wXrrYDiS57","BsW5P88BgYdbjUjjWUW6yUqwyV",5619759,1165,FALSE,260897,35,15,25,25,20,1,25,40,20,3,2,2,5
"kuH2L52U49lZ75yn4h0cUraN3S","XuzRGOeAAUqENJqFkq9PqbAVWC",1429780,636,FALSE,151633,35,15,25,25,20,3,25,40,20,3,4,2,5
"kutrWI5dMcp8kzEGR6Q103Dxec","KP4Exw7uSGgaOC3oYaLhxEG8Qd",2964304,860,FALSE,168617,35,10,25,25,20,3,25,40,20,3,2,2,5
"kwTEdAS9ef4ZvCAzCLUcdcdnQK","MpcyN71fjmLtTud2Qu14NbPiYu",103997767,1232,FALSE,187199,35,15,25,25,20,3,25,40,20,3,3,2,5
"KYAjmhabDTFr0McGDGoBJQWP48","M1kYJcVgzSACm3kncWPvfEnKIg",218994,12,FALSE,169735,35,15,25,25,20,3,25,40,20,3,4,2,5
"KYZs2cxLs1LlFCMtNzlJYeMgvS","7XSF6kRiaGjoxlM77CNfuUnscG",2151822,752,FALSE,229581,35,15,25,25,20,3,24,40,20,3,4,2,5
"l0xP1oAfW82B9Ftb4RvNztbXmf","qOtZjqKO30DH8qoVawXg77AUdm",88602074,591,FALSE,251571,35,15,25,25,20,3,25,40,60,1,2,2,50
"L1QqMenGfcMIiak39imZc9rZxn","1kJMzHzu2UpK3DWeVDqYRV4QEG",907528,91,FALSE,267882,35,15,25,15,20,3,25,40,60,1,2,2,50
"l3OjEjQ31XHY04A6cgDfuYc2iZ","S8jB2N9xNAgeqfyD9yYfK25Ff6",272424,13,FALSE,233771,35,5,25,25,20,3,24,40,20,3,4,2,5
"l4n4E9nC1llm18Mzz9whrv9Mah","nurxKu62OL1X6z0bGhTdNTo3Pd",11503635,706,FALSE,177795,35,5,25,25,20,3,24,40,20,3,4,2,5
"l7VPRF8LR5tHtPb9i0tGMQV31e","NdzGA6qlUaaLP6Dtpcm4v4bG0K",5451096,740,FALSE,205581,35,15,24,26,20,3,24,40,20,2,4,2,5
"L8SRwWm4ABPpsdtdmQGg7M7HRX","DQQAMrJMxmjcPMpjrV2Ox5ydYx",5398067,1242,FALSE,240836,35,10,25,25,20,3,25,40,20,3,4,2,5
"L9CQBeyXCPfRxo1BuVO7U7oaw9","iGNUhk2albFbRd2iUYovTTwpR2",2481159,103,FALSE,260978,35,35,25,50,20,2,25,40,60,3,2,1,5
"latrlAmGKGswP3nu4uX3Ea1yfr","zuu216bDH0cs4csPNmN5prO3sX",2723938,239,FALSE,263454,45,15,25,25,20,3,25,49,20,3,2,2,5
"lbBrKab9YBw5hbwKV55PPKIyiF","XqXJSdWAXxnnJtXjuYLx1J8WdG",4273503,283,FALSE,300595,35,15,25,25,20,2,24,40,20,3,4,2,5
"lBGDyGsiaL16USTC2nyJ7ECZvI","ipbwPt8V8GvUWhT32czjETa4uO",5015369,624,FALSE,293924,35,15,25,25,20,3,25,40,20,3,4,2,50
"LbpvZFhmm7FIWKvZpcJds6XumR","YD4AI8q0xYK3lhjuPAqgu1V5MI",150903187,527,FALSE,236492,35,10,25,25,20,3,25,40,60,3,4,2,5
"lByw0oKzfW72LpoYEZZaOtl3H7","k5HXSecXtPyaF547gFca4JNi6R",3877705,1104,FALSE,213402,35,15,25,25,20,3,24,40,20,3,4,2,50
"LCE9VabjOMWa6uymFKWQ20zkYN","rY7YgW6ZFUHEYJIzQMNzoeZ8A9",9358725,1242,FALSE,202438,35,10,25,25,20,3,25,40,20,3,4,2,5
"LD3HgmINTG5LYGXMlYkV3CT2hF","9G0dFDRsvdqIzFsnncRQecGJbZ",1376846,383,TRUE,301003,35,15,22,28,20,3,24,40,20,3,2,2,NA
"ldg8GxRiI4NfshSWiGzp1TU8l5","16X7QtEKQnh6VDngRSXVfLwiEO",418559,26,FALSE,236504,35,15,25,25,20,3,24,40,20,3,4,2,7
"LDgwU0FI2DNdm2KVZMIda6MtJs","EyG6DKqPmlc3tGRjazlBpBmX2a",1457502,626,FALSE,218795,35,15,25,10,20,2,24,70,12,3,4,1,5
"lDrA1nCevzm3UavCIq0nDoYH1b","xdhTqRBZtmuP0VBGyAah9XqRnm",404524,42,FALSE,198073,35,15,24,26,20,3,24,40,20,2,4,2,5
"LdwZbWQolsAycvxJkoZFemMF3R","LAl15kj45NszNtIjSdRMJlWGRK",3394310,704,FALSE,247529,30,15,25,25,20,3,24,40,10,3,4,2,5
"LEPMFqpM60mBSui5KqPu9HKo0d","cKWv2V1XhzilYdKScw01h4dGAr",1094741,388,FALSE,196466,35,15,25,25,20,3,25,40,60,4,4,2,5
"LF3cV7Xkff7fTVmNYQmA9JeQ4z","iwliEOkheIrHSL45V1G1NtKsdh",3301323,1061,FALSE,192195,35,10,25,25,20,3,23,40,20,2,2,2,5
"LF3gs5WJ11ptZZ7Xgq3Gkb9zNn","vD6UDEw6DOzJvgA1VLBCeLoGv9",27687500,1078,FALSE,195428,35,10,25,25,20,3,25,40,20,3,4,2,5
"LFpp2rh9StpcSCXCEcZ6OJtwZJ","strurM24nXwDhgOGzF7xyi7wPi",4237634,1242,FALSE,194740,35,5,25,25,20,3,24,40,20,3,4,2,5
"lGb2NsUxUWdSGErGVAXP2xYQI8","P6BHcEzmKdEt2rnLBcLAa18B69",1495775,89,TRUE,300999,70,30,25,25,67,3,25,40,60,3,2,NA,NA
"LHvQCIlEMWTttFGgCEndNUD7DH","kBITF5cj9BDUdHcLfGUPvFbeXt",278722,12,FALSE,268820,35,15,25,25,20,3,25,40,20,3,2,2,5
"LI9KTjle7zc3tcA62CwYWhkCF1","MXALFIkH6HRVCl0yybN7M5jxOe",1245080,65,FALSE,212876,35,15,25,25,20,3,29,40,20,3,2,2,5
"lIYyoQAoZLSqXuFPVjVcs9LczN","p5xZt4OqQIDFy8OOUlFFTVau46",4474227,1242,FALSE,250915,35,15,25,25,20,3,23,40,20,3,4,2,5
"lIzvm4CJCiThF7y01htWkxAJVc","mad7UfrfrCkkQ0lgWMvmoelsSO",4141753,1122,FALSE,222712,35,15,25,25,20,3,25,40,20,4,2,2,5
"ljLWgOQJ2USQlQKOwZMLgQLC7U","FkxUVOsYX0DIkW0qEq89Xot8D2",2278884,509,TRUE,301006,35,10,24,26,20,1,25,40,20,3,NA,NA,NA
"lkhGRwKvPDRbKvXxIQSwh3c8Q9","hj6Mm9x0qNPl9bpoQqNisJCJfT",89093012,392,FALSE,197112,35,5,25,25,20,3,25,40,20,3,2,2,5
"LklZ1xWADYfgWvvXt76B4VIEsp","fIVgn3NGd4FlxHAsKLqUGYjLQf",3310237,1254,FALSE,198373,35,15,25,26,20,3,25,33,66,1,4,2,5
"lkrQPJeQYWnpU2QZggJgWbbpnn","qd9DDAp6GyNc2IDvbN25l07rrd",3511445,1229,FALSE,171976,35,15,25,25,20,3,24,40,20,1,2,2,5
"lKZJvNSZUuiul0VN6enGYh5Mkc","NKU6h46sxZtCU3yFuhnd4jycKP",10514008,1175,FALSE,184234,35,15,25,25,20,3,25,40,20,1,4,2,50
"LMQ0tzADSYlkHYjuApntzVxTZj","Nw1s8FLSNAr1IsWHEsRHFSwVTd",4839145,636,TRUE,301004,35,15,25,25,20,3,25,40,60,NA,NA,NA,NA
"lnC4IFmXHyja6WjBDdpgNnKoGs","8Za7LLqUr3P7VtDFvobtJIujTv",3285637,376,FALSE,201518,35,15,25,25,20,3,25,40,20,3,4,2,5
"lnEhsbz68RKvL0eHw8UBXgqE9c","TKYJesYeeM4RdW7q4mf1cCUjaa",1743886,632,TRUE,301003,35,15,25,25,20,3,23.5,40,20,3,4,2,NA
"Lnjzlp1B3LD6k9IGtiLnbIyQCT","vacSfWPBP2hk7jz0jS1lBOJcmH",2354211,745,TRUE,302918,35,15,25,25,20,3,25,40,20,NA,NA,NA,NA
"LPA3dg3KKHIlHp5Gt7kwYun8Dc","1aoG7kGCkDsynsTXQIX1JpIR8L",5098256,1011,FALSE,182246,35,152,25,25,22,3,25,40,20,3,2,2,50
"lPinvg7CvzsGUnsNRmGuF0bWDl","1Tj4DfDjwXjyWjcXLYpSa16DGp",4672578,1264,TRUE,301015,35,15,25,25,20,3,26,40,20,3,2,2,NA
"lPw04umoqgoEFUGKvJ413tvEFd","UiKotbHSLJwQnRxmB33eVQaecg",4520977,649,FALSE,248533,25,15,25,25,20,3,25,40,20,3,4,2,5
"LPWKGscGcQlnpuVg0Lz66NigRS","2MDmO71dX9TtuNpkZFufRLflXi",2942587,86,TRUE,300993,35,NA,25,25,20,2,25,40,20,2,3,NA,NA
"lQ2r83NNQMukZNUxALnH4byVnC","Ymd0SyQZu5Y22Wf120wbIccjWe",6746688,1243,TRUE,301009,35,10,24,26,17,2,26,40,20,NA,2,NA,NA
"LQ8ZvVz468M4f3hqdjrKPy1Ehr","AVh37uatZwU3hcuQErJu0yQmFB",3370180,601,FALSE,180388,35,15,25,25,20,3,25,60,20,3,4,2,5
"LSRSxe9JEsaXnJxTsYA6sa78wN","GxZsDT2uBQns86gepX3EiNLj36",46263128,817,FALSE,229282,35,15,25,25,20,3,24,40,20,3,4,2,50
"lTh1ykpAgcGVO8qOiXgNfoWhTG","krF2STjMGTSAM0iPk6M9NeRzT8",1941432,60,FALSE,218284,35,15,25,25,20,3,25,40,20,1,2,2,50
"lUQwxyowJ9bWeAVn3KwO9BJ736","QCfsyfsCzU70OKhudvnfUwdb1B",4103557,1176,FALSE,148684,35,10,25,40,20,3,25,40,20,1,2,2,5
"lVfbuT3fVkOA73LEbWXr8Ki3fY","mLg2sbCSz77LNH4gIazxfBwpPw",942672,382,FALSE,221089,35,15,25,25,20,3,25,40,20,3,2,1,5
"lW3WqF9SMh5DBwfmBoWSs0RuIv","qgOLL5ljADukc8EiwivOyXQTYE",1223203,605,FALSE,275359,35,5,25,25,20,2,25,40,20,3,2,2,7
"lWftkAnOIE0JbPvz59jZppG5Wo","U1GWxz1A7in1fNXbDAs2fyXiVa",2160279,792,FALSE,149041,35,15,25,25,20,3,25,40,20,3,2,2,5
"LyEsVUuqpS8Oj9FRnPbkRePtFv","CEHZ0w0e56iqDPhYFOHBCoYYHH",4056217,1226,FALSE,295713,35,15,25,25,20,3,25,40,20,3,2,3,5
"m4CLQjvrSXA0vg0pvRQBbifEAa","nbtanyd98XoDj5lnSk0F1eHIXp",174955550,1231,FALSE,126976,35,15,25,25,20,3,24,40,60,3,4,1,5
"M4GqMj5jrdYlCXy6FxCAsR932Q","PKd1Tou2hS8J0oB8PmfanlJXto",2529680,1029,FALSE,210809,35,15,25,25,20,3,24,40,20,2,2,2,5
"m66h5ygbqGxkdNNPpf2aAyJLAa","PROzdsGwC0IwGjr7jWey9df60j",558216,26,TRUE,303242,35,50,25,NA,20,3,24,40,20,3,4,2,5
"M6opWzpVTUyrLAs2x82Gj65eLX","Aq6YVprR9Li2mYR3fuC8p57HkW",843472,46,FALSE,227634,35,15,25,10,20,3,24,40,20,2,2,2,5
"M8XnbeQb7qiTTNcsG1gJlNRQtO","ZCde2oWc3njueN2fprnGvjQbTo",317470,12,TRUE,301001,35,15,25,25,20,2,25,40,20,2,NA,NA,NA
"m98IzE8NkCKtX41pm5ghso5imq","1JiSswQKcXaginxhe34UXnBooU",2348131,76,TRUE,301001,35,15,25,25,20,3,5,NA,NA,NA,NA,NA,NA
"m99p8a3QerMeBm70oBf9qAKTod","FpYsYpmLEwA5QQWswREiXZMI1j",2043105,623,FALSE,249765,35,15,25,8,20,3,25,40,60,3,2,2,5
"m9IoTaFSm6H31kbkw8ZFFltZv4","Y1YhhueHenKxeLl75U1pHD0gLw",1703343,141,TRUE,301000,35,15,25,12,20,3,26,40,20,3,4,NA,NA
"Mc7pBTZkbgZu1uHCFwtV7VHPzj","F1xZbFiciikwEnLo5qmBKQQY3i",2792842,588,FALSE,278542,35,15,30,25,20,2,30,40,60,3,2,1,5
"mDtc57ds9iFYfe7Hm8UDOejAem","0YKeNPTPjndKJxNH9HPMP1KAOl",1665005,952,TRUE,301017,35,15,25,10,20,2,25,40,60,3,NA,NA,NA
"MgPWkvZHGB39avm9KdHZ8BQt5n","en9gbbqig6wD5OO6CBzIu0gcpa",5668640,1261,TRUE,301004,35,10,25,25,20,3,25,40,20,3,2,2,NA
"mGUCrL4Wut2zBLIMzAtJYSbHvR","TnHlHf5Z290OsTKQeBmDvdTBRp",1094986,87,FALSE,174023,35,15,25,25,20,3,25,40,60,3,2,2,5
"MJcaQEDvKS3luKBcUJmNHb58jp","LihGmhn7UQsun1EgLNRSTkouR2",1614598,955,FALSE,191164,35,5,25,25,20,3,24,40,20,3,4,2,5
"MlNpRIxNr4Q6nchHYxH76k6sm3","8rjLfDaKbT5gXyEfZMvaa0AZlg",4574854,1237,TRUE,301004,35,10,25,25,20,3,25,35,65,3,2,2,5
"mlTrilKh1Q0bacCcRwttPOFkra","bYgp8u1QxTYfNEPW5fLyc8mHZg",1996011,408,FALSE,203071,35,15,25,25,20,3,24,40,20,3,2,2,5
"MmAqPOgUf36icSVvwPg3VAFo8M","6jFsTp6IwLPZWvqRgChJer6uvO",3795255,860,FALSE,237756,35,15,25,25,20,3,24,40,20,3,4,2,5
"mn70LAqvULFcZdWtlSOewZdYKQ","UXUZpMgf3pxy6MHkyXCDs8aBYI",1944708,86,TRUE,301003,35,15,25,25,20,3,25,40,20,3,NA,NA,NA
"mnw2MP9zpgP7Q3VSw1uI8TG0Ub","yOOP1OjFwuPErpmuyNJ5mLpddt",1897101,700,FALSE,252449,35,15,25,2520,20,3,25,40,20,1,2,2,50
"MOFQIoGqXvUMrK310CfS3NN78J","5NOpXy5x5W5DVQMzK8O9mtA1E7",2422599,1254,FALSE,120242,35,15,50,50,20,3,24,40,20,3,2,2,5
"Mp6nyOq30gOhHNq69pKuuq4u56","fTWrYUaYhrt6EByY59TnPoKlb4",5796279,1243,FALSE,250128,35,15,25,25,20,3,25,40,60,2,2,2,60
"mpk7nn4iYcrnDBleS2h8h92ZjM","xnQNenYRJUjzB4lsKERL0RnuLE",2381416,12,FALSE,214545,35,5,24,50,20,3,24,40,20,1,4,2,5
"mPKkz4EXg9Dp7Nf3ADD9t97QNg","ZZQOQ6qEYt7K3vQOoCdZIsNJKl",1888224,719,FALSE,238998,35,15,25,25,20,3,24,40,20,4,2,1,5
"mPst5si58TYGbHcapmVznGPjNs","bSMBdYwCzdhudGMjCteZbWb5dB",5466476,1243,FALSE,262984,35,15,25,25,20,3,25,40,20,3,2,2,50
"mRky0EoqfAjSkGXCec08zizC1Q","XPIoIXpu61I2QH5fymoHKsR075",2753453,866,FALSE,133405,35,15,25,25,20,3,25,40,20,3,2,2,5
"MRR9jrOlCjMQWc7pisrubRConZ","E9fRBCvIvYnKx8ndDqj2iyMNIw",5229902,1235,FALSE,255936,35,5,25,25,20,3,25,40,60,3,4,2,50
"MSAyv79bVroqO4GfmgzfqA7Bhp","8LvryW50uY1yxgcqq2kwk5o3io",3063916,1240,FALSE,185080,35,75,25,25,20,3,25,40,20,1,2,2,5
"MULkyWJONBTsSO3p605BsqDPtV","qtp77yNbO21qoB5TpDV5alzbNi",4358775,1263,FALSE,254670,35,15,25,25,18,3,24,40,20,1,2,2,5
"mVc6GDjwzVL77t4jCVFDU8J1lE","hi96MNKqmnOY6CZKmrj0or3ig3",3684239,1163,FALSE,240153,35,15,25,25,20,3,25,40,20,3,4,2,50
"MvrGgZJv1myNfed00vQL0LXw4U","YVsTIXV4SJ2k3VkZy5GoMnjghI",1388083,37,FALSE,256995,35,10,25,25,20,3,24,40,20,3,4,2,5
"mWTxYWVcW36ErK1bpHcFbcXWbS","l5RmQMAJpY1IKXRCwv8zKUkYih",310638,12,FALSE,253640,35,15,25,25,20,3,25,40,10,1,2,2,5
"mxqn2JfwLCRA0pIOIEnLTxxLzG","C6BksH8Y7BxLZEKhxHlAbR8zir",5470530,785,TRUE,301003,35,15,25,25,20,3,25,40,20,3,4,2,NA
"MZG2W0Y8pPJODMBN2T4GGoe8cU","saUZ55D4PrF3UYM1FToBWVaOTC",473653,26,FALSE,230400,35,5,25,25,20,3,25,40,20,1,2,2,5
"N0g4ThkNi5uzTjmm3iSULR3qCr","AtsPbB4lihrT4Nw3v0nAZ5nPhq",4262329,571,FALSE,258007,35,15,25,9,20,3,25,40,20,2,4,2,5
"N131zSWY0X3Qg2VRGOpwQkj82S","AkWOjmK0CRgRSxkoO71BaIPAq3",343827,26,FALSE,228736,35,15,25,25,20,3,25,40,60,3,4,2,5
"N2ZEdEvsWKUISu6XYATb9RVv8m","84FgL1aA1TYvHnJ2ASNzpf965O",67652575,248,TRUE,304488,35,15,25,25,20,3,25,40,20,3,NA,NA,NA
"n43iSH5SP97EkAIOkyEbKkHxgw","zA3sAShLDcvIqwDOJtqsBQfDXY",3326369,501,TRUE,301000,35,15,25,25,22,3,25,40,20,2,4,NA,NA
"N4cI5F1rffqm0mejbjuY5o1LX8","9iudRmUI0iaaUnuAn5LtFFw5P6",5878373,2069,FALSE,85668,35,15,25,25,22,3,25,40,20,3,2,2,50
"N4RHtA8KpXQrWAtlg1FJPQPJyt","8mqH9dW7F9XkPZyBqhx8n4qup3",44407557,1142,TRUE,301234,35,15,25,25,20,3,25,40,20,NA,NA,NA,NA
"n5wiwDAtYpfu4TG2697NLC2fHH","BeUVsUXNXYWZTD6M52s6pqfLHz",129228569,976,FALSE,208759,35,15,25,25,20,3,24,40,20,1,4,2,5
"n6xrzXKYc2i6SFNJ6KJgzuIlj3","7jsunlgasOTR8CrUCbnzWR5zbM",6576013,620,FALSE,278732,35,5,25,25,20,3,24,40,20,3,2,2,5
"NAY8S9wc0Hce6Qs2rVP012ZCYd","79aOpEtQ1gh5ogZWgFpfmvkGUh",3722128,825,FALSE,241368,35,15,25,25,20,3,25,40,20,1,2,1,5
"nbPDefRLT3nbcTJSTTxKQVpf8K","BOMb5omz4TggcoXHHOrStMYwbS",8575047,1229,FALSE,298436,35,15,25,25,20,3,25,40,60,2,3,2,5
"nCHVPuCDPwhNze2RXJ7DWy4O8f","IrCDaFutgBz9bFf8P9v834LKAN",4710841,1126,TRUE,301002,35,15,25,25,20,3,24,40,20,3,4,2,NA
"NckCQMLhlfG7tsv52qUVT4hJ8k","u3yLOAGWnA46R398OkiBR2Hvs1",3765331,1200,FALSE,225200,35,15,50,25,20,3,26,40,60,2,2,2,5
"NdoT2gRnhx8ipnlkwTy4GmOaf2","W8PWw0QGzM5J6mgfJqr537wRGq",3425931,839,FALSE,216380,35,15,25,25,20,3,25,40,20,3,4,2,5
"ne7Hyk7IO8F1ifDK3iXWAkwLsE","rZMJJc2gtzJO07IMVi0C3G90SZ",82537577,1078,FALSE,212945,35,15,25,25,20,2,24,40,20,3,2,2,5
"nEeW8YuLxLWEEolURfsZTJOT9Y","6LkTOTbz5Ml1kgO4XiK8mk7jIj",225536,12,FALSE,190882,35,15,25,25,20,3,25,40,60,3,2,2,5
"NhmmExb85KSV4R15kHjEGbc7oA","f35WgHqRQCdItC20ZSQYLGanpm",4249444,1155,FALSE,247572,35,15,25,25,20,3,25,40,20,3,2,2,5
"NI5IAMfkdgPnc86pwJoPCIiwca","fj7JL215un2hpxWurlfEbFcYTw",103499823,1249,TRUE,301002,120,10,25,25,20,3,24,40,20,NA,NA,NA,NA
"niRTlHXPxzqK0H1JyEgwZc0UIG","VTLIhyarEOaU8qmm2jzSvP9GGO",1798977,803,FALSE,164300,35,15,25,25,20,2,25,40,20,2,2,2,5
"nJj9hZhKFBkrQdYIiB38jD8mim","IGPwhUAEhFNBd2mmW6FeTdKHW5",4901326,1240,FALSE,251149,35,15,25,25,20,3,25,40,20,3,4,2,5
"NKYnMs959z4MohQvtvXVeD8sA1","nBoRaoYeoeUDuCPHK7rKllzkyE",2857637,611,FALSE,249703,35,15,25,25,20,3,25,40,20,3,4,2,5
"nLcCoQGeZGHMn89ANPQiPSAZLh","s6tXKtY8bx4eb5ge3fikskynUr",7781518,1256,FALSE,286735,35,15,25,25,20,3,24,40,20,3,2,2,5
"NlfdIksPxMRRDr9YsUv5E5SRcd","lfWPIUQrUXXPld6lZMBDe9qTZc",2879778,534,TRUE,301006,35,15,25,25,20,3,24,40,10,3,4,NA,NA
"nMOiirhSWpCsaXpbmwDx7SKYos","KhijE1jkXP216tB0XdOXSaL264",250042118,296,FALSE,284358,35,10,25,25,22,3,25,40,60,2,2,3,5
"nnrUzOeOCZAlk8s2gaW11X1M3d","kWrJtB8LxsfaeAWNvV0fjsyS0S",3784033,1242,FALSE,155889,35,15,24,12,20,3,24,40,20,3,2,1,5
"NnU30aP1iimkbRSDUItEnQ337F","ie9TowbsH4ncXXgsL29lduwkVX",4621787,1131,FALSE,248597,35,15,24,26,20,3,25,40,60,1,2,2,5
"nNuhbJSzCbj4G73zWl6I4xraUF","3c8o7lQzfIYW6fuu2mvORqnItX",318379,20,FALSE,203611,35,15,25,25,20,3,24,40,10,3,4,2,5
"NOKx5K7OIK1wtCOnDxdvHtRqOi","HQ8gXq3IvyN8j6ttulKQML4T6S",546366,35,FALSE,131668,35,5,25,25,20,3,25,40,20,1,2,2,5
"np4QQHbyHFyApkiSA2WsPOwqHH","bFpTnQ29wjFHNbPrv2HkcKoDWU",4305792,1255,FALSE,216395,37,15,25,25,20,3,24,40,60,3,4,2,50
"nRhXOCIrQlgeYnsvLT8XYugTVw","e1NhP4FRP69DTjPzGZtVIUGOVo",2003843,104,TRUE,301017,NA,NA,NA,NA,NA,NA,NA,NA,NA,NA,NA,NA,NA
"nsJqbg87dI43hDOU6hXuwaF3ws","og130leK3X2cQJPI4pb6IxoHP7",4019629,1242,FALSE,200009,35,15,25,25,20,3,27,40,60,4,1,3,5
"NSnQu7t0jZM6R5sNN5zxpi3f0H","EVF6EqOsuQtmq0h3l9d1DACeW8",8359805,623,FALSE,144417,35,15,25,25,20,3,25,40,20,3,4,2,5
"Nuf1kiDMmXDp6youHGtVcd2iEk","JnPZ9DHg8xTO24W2zn4OM0Ruty",2389587,1135,FALSE,172733,35,5,35,50,20,2,25,40,60,2,2,1,5
"nuM7jZuGTVkmBKFvvCv7bP8Vpc","NiwMDhar0iyZSbpfwGN0zs2TvH",5006523,1021,TRUE,301000,35,10,25,25,20,3,25,40,20,4,4,NA,NA
"NV085p9OkbcxNx2uEdhkTmFB8Z","wm57MyS5z97I3YCbc28HubBlpH",963627,97,FALSE,239586,35,15,25,25,20,1,25,40,20,3,2,2,5
"nYXAyL7qurWWv2Md5yROO6BQ3B","TE6yt3ASxzfyTMoCJ4dxRFPHaW",3679005,1125,FALSE,292274,35,15,25,2520,20,3,23,40,60,2,2,2,5
"nyz8YhRTnKRSoKaO3Rp1xubjhW","VZXplojTsmn5OUF5foaevotOTK",302989,20,FALSE,171937,35,15,25,15,20,3,25,40,20,2,2,2,5
"Nz90xdLibYfzURDZ2KvBmZfJX6","EJboNhgDQU4RI1lQAtULsMlj1T",5551889,1190,TRUE,300999,35,5,25,25,19,NA,24,40,20,3,4,2,5
"NzOGTkfj2kr9MPXxnEImm8gcle","liUsAz89M5IAF7fHBG9j8IyTtp",4268512,582,TRUE,301008,35,10,25,25,20,2,26,40,20,1,NA,NA,NA
"O1L2iMCmrFnsapXKJfxzXaAkfo","rTYFR3ioZ0CeDXEhqOeZwOHocN",359256,12,FALSE,290262,35,15,25,25,20,3,24,40,20,3,4,2,5
"O1LlZACeueVn3pyDccQNro3Vw0","gC1s4O3aUFgDZ1ZxsKQT4rXWsE",813553,104,FALSE,207061,35,5,25,25,20,3,25,40,20,3,4,2,50
"O1qJt2XIJqLg5MOdqnhgKxlqvP","eefaq9H64avTitSPUpxTTc7gtV",3466357,1240,FALSE,279769,35,15,25,35,20,3,24,40,20,1,2,2,50
"o3g7NxYGyYkfIQIEaaB5OOzyMg","EKAEhNFMnl7Xc676quyC2vXxPg",2232647,402,TRUE,301002,35,5,25,25,20,4,25,40,60,4,2,2,NA
"o4ndSd8nhLoeDkVeuWnfHrX4wX","F3aNhC941EZ9snyTjaqkyPWkiH",3011584,236,FALSE,240997,35,15,25,25,20,3,25,40,20,3,2,2,5
"oa8aNOPnIGGhykEYsNsRXuxitL","V88ZSB1urDT0qTWewDe091mwDU",18533517,1225,FALSE,156590,35,15,25,25,20,3,25,40,20,3,2,2,5
"oat5Orvt4pABqKU8NIuprjQuSV","1Z7lAnuDru5IURaSbp0u6fa9yv",142981165,190,TRUE,301001,35,15,25,25,20,3,24,40,20,3,2,2,NA
"OB8uXMzQFt702nHThs3L5v4Vbq","JaJJLJGIj7xL8umRv98sVpAczy",1899300,272,FALSE,124306,35,10,25,15,20,2,4,40,60,2,2,3,5
"OBAqCQE0JdTkRD8gaT3AWSOmjb","LvPwXpUDzlIKJ2YZHL8YFi3NhM",2024758,1102,FALSE,120897,35,10,25,25,20,3,25,40,60,2,2,2,5
"oCp0tXqWHGpF8wDfTRq5fD3DTe","LS9iRAZQyUX4rByMvuHd2t7RW8",11199502,1296,FALSE,283250,35,33,25,25,20,1,24,40,20,3,4,2,5
"OdEU95TRfPltuoUtIlcCiqnN2e","ZH09eBhHOw64DD5l5CU1T7xpr0",1775677,946,FALSE,238629,35,15,25,25,20,3,25,40,10,3,4,2,5
"Odvdr1Gsq1JL3v9lcCk7uCxwR7","TPqloVrQUjHWRt5VA91dcdVKgb",1641452,1075,FALSE,185137,35,15,25,25,20,3,24,40,60,3,2,2,50
"oEgwzHJly82rW9bnQST8hI5HdB","J51RwpurwCk41yThQbWaQQPoJv",1438374,446,FALSE,227003,35,15,25,25,20,3,25,40,20,3,4,2,50
"ofwRTVpTiiMPi9Y3MUCLfhLIpN","NUvfGEaeDwaJGMnj86SzVSVD5B",2323206,234,FALSE,176038,35,10,25,25,20,3,25,60,20,3,2,2,5
"ofXCrnaSHvu8lnxJDMmZS7KbKS","nZNxTnTIx3SuMLqkZl7Q3z1RDu",1165736,401,FALSE,227980,35,15,25,25,20,3,24,40,20,3,4,2,5
"OiAnCQPnyEVGvCG8Zzr4pHhZ46","9bSm9q1ZahZ729cvc2pJq2Xa9L",4327457,1242,FALSE,222506,35,10,25,25,20,3,25,40,20,3,2,2,5
"oISSxbCGzQvHQZ43yXRwZeikK6","psq00wnXGmc7D3JxQxPOPX8EC3",1133186,666,FALSE,207134,35,15,25,25,20,3,26,40,20,3,3,2,5
"oJVQvCIUkeIPBZ8wTTysl5WFVz","3l1t8MfrF0bimaGqX18s267NPp",1322419,438,FALSE,167002,35,15,25,25,20,3,25,40,20,4,2,2,5
"ol8sapae4N5I4jpwncG4uYHXNe","MqEj3sTpyCA5RVYFJbvR49Dkbv",1863207,610,TRUE,301004,35,15,25,25,20,3,25,40,20,2,3,NA,NA
"OlChNQ6s32UVf8B59ETZpIyTg7","TwFZOvqIMz8zbdD5qP3wdS8cn1",1473302,537,FALSE,227210,35,15,25,25,20,3,25,40,20,1,4,2,5
"OmuBsfIaWae9x7wD3WS8Ik9ZBo","XmjwkEhzsqTNy9cVjshG6q4xKt",37430124,1104,FALSE,269877,35,30,25,25,20,3,23,40,10,3,2,2,5
"omvuJzoImubYsahLw78yuYou8o","iMaXP7ClzknelBXlgtdcqbJSAQ",3535122,602,FALSE,206124,35,15,25,25,20,3,26,40,20,4,2,2,5
"Ond5OVvj5W1df7eBIKLAJo2EOb","rxL76U6jUjbQUG569PM489226q",1396298,66,FALSE,300628,35,15,35,25,20,2,25,10,10,2,3,1,5
"OnkU5qwXe4GxYesz7WKXnUyU4q","P3wL8o5mDfn9wUby6jKDJJ4MHV",15090868,664,FALSE,257424,35,15,25,25,20,3,24,40,20,3,2,2,5
"opsmyq2jSwXA2waHMM4Xf4R2Uf","7JLjhurCoFWJuVpZiwLa0rxPPX",11625832,1235,TRUE,301008,35,15,25,25,19,3,25,40,20,1,2,NA,NA
"oS6wNOPURQ0vnUEbqqEBymzeWf","Rhlt24TfHgFM2QEdHyCt3ZBaCo",2414647,685,FALSE,277239,35,15,25,25,20,3,25,40,10,3,2,2,5
"osgaGbowxJewJJbkHuL2XlYtFy","WeeKMJ5nKRzArXVgUBk5Qwrzqb",4567474,1105,FALSE,236947,35,10,25,25,20,3,25,40,20,2,2,2,5
"oUvWtkgiJiCczYNl0OaTXCmH5G","hADy3bPCFI4o7emVg1KJEKtDyU",577204,40,FALSE,278551,35,15,25,25,20,3,25,40,20,3,4,2,5
"oVCNw5pFnpWJ91MPNjiESVB2jO","8khU1d01tYeYbXU5VQUnTD4fvj",5528593,669,FALSE,241599,35,15,25,25,20,3,25,40,20,3,4,1,5
"OvrlfmihiEA0SPSRgdolEShfDT","9YhlHx5Vy1Yz39rVWn3vmmRZ9n",2549962,982,FALSE,226419,35,15,24,25,18,3,24,40,20,1,4,2,5
"OXdbrmTGCdGbCw7eyOEo9MBvwz","SG3OXbA2s8prQ2Jv4Hbvp8pbXR",7032366,1242,FALSE,215143,35,15,23,27,20,3,24,40,20,3,4,2,5
"OYpfy9rCrS2Mztd2mttbulQQ8G","bWbqmXsOtizhu7MFV4l0M9Kcym",181800913,1228,FALSE,178448,35,15,25,30,16,3,22,40,60,4,4,1,5
"OYtUbiD1eq9e6mOGddM8s685y2","3FCsxuaNZWZiXJohNmLKU1tL0Q",2070648,956,TRUE,301002,35,15,24,26,20,1,25,40,20,3,NA,NA,NA
"p0TG0rbKJGaKsVcICgd2BKXchY","oVtriiF9RsvNeAD17xHTXCZVyy",271460,12,FALSE,245147,35,15,25,25,20,3,25,40,20,3,4,2,50
"p1kVgrIPzzl9UMz61h4DKQyiEi","QObN3oyclpp9la5ojtZbfauJHu",3052734,1191,FALSE,240811,35,5,25,25,20,3,25,40,2,1,2,2,50
"P2zFc1cnBSWHnBxLFWrIDIts5I","vq53BB2E8U8A51hs24B5eJHpm3",3529822,469,TRUE,301007,35,15,25,25,20,1,2.5,40,20,3,4,2,NA
"P42Ku8XqYlthTLnPwsBMVTm7OH","FxyTJ0ftb5Ye7Yy9tAEOfT97U0",4340060,669,FALSE,243560,35,15,25,25,20,3,25,40,20,1,2,2,5
"P4eiL95uWNXxyaRFqVwzZfMCVa","2yYmpp0KTOb9UaUcW58sRGnb1p",4251394,572,FALSE,129830,35,15,25,25,20,3,25,40,20,3,4,2,5
"p4Jef2Tgu7LgNl1QbrvEygMXfb","9ZyoZGkkunLLyOW5B1n6kqp8hm",1943374,197,TRUE,301006,35,15,25,25,13,3,25,40,20,3,NA,NA,5
"P5F3bkSUMg9396YSqbgseVec7x","Dn3WKbbpYXWsUbdRg4i3eJS95I",3362592,1197,FALSE,266732,35,15,25,25,20,3,25,40,20,1,2,2,5
"p5rueNB0wJFWIU8YocLnBC5JUF","1GlFzIb27DyBvLPeMlgymQ67OX",156480,12,FALSE,143759,35,15,25,25,20,3,25,40,20,1,2,2,5
"P6yRs0BnvbMbC9ORJ9fxlGCZus","i1C2tyqiqWxRT5ij7Ktaz23XBD",1934097,493,FALSE,181036,35,10,25,25,20,3,25,40,20,2,2,2,5
"P9rkLGSIUKsE1GvDiicNmTI03c","qQ9zZdV97ESsy5khlJFhb6jktM",2858133,250,TRUE,301024,42,15,24,26,20,3,27,40,20,3,2,2,NA
"PajqPscHoFVqrPVVxf5vkJVt99","bBd22zTpeQiWok87iB0i96scmi",73268292,1177,FALSE,237284,35,10,25,25,20,3,24,40,20,3,2,2,NA
"pazIlFqeiN2aZOt4G0jWlOSyh5","MRUW2Kea2YtTTQHrJmAC8JdPgW",2625780,447,FALSE,274408,35,15,25,25,20,3,25,40,60,3,2,2,50
"PCCN4zC0lgqqa6tXf2eU9IVTl8","aIfuIA6MLXTV75mIlLjUgam2fE",731534,385,FALSE,262328,35,15,25,25,20,3,25,40,60,1,2,2,5
"PcR60ZEwNlOkS2M2nPSkI0Cz2D","EqZYGWZb5wtXXZMIrrmVqq8MH2",488575,78,FALSE,162674,35,15,25,25,20,3,25,40,20,1,2,2,5
"PeKXTmf3HQFyTImG8AiqPa3K0I","2Qx9vjgIgU53exXj2EJZqMlXU0",3563321,1229,FALSE,229769,35,15,25,25,20,3,24,40,20,3,2,2,5
"Pf4HHtsp0B5zuhH4yWmJ02GAUG","XsN9VqXl5g041O9OetfRUWt727",4149385,1221,FALSE,255879,35,15,25,25,20,3,25,40,20,2,2,2,5
"pFMqewbhERlkdbqBihtVSsYMHb","dHqkt9EqtY4tgYcxRsw9IJchr4",3444708,601,FALSE,201743,35,10,25,25,20,3,25,40,20,1,4,2,50
"PfxCQF8Aj1FQBO77W5tC04Y1Jw","xHiDH9QQw1BZKhtWMLTp9Oyzlb",776256,120,FALSE,168102,35,15,24,26,20,1,25,40,10,1,2,2,5
"pg2AYpfio63bVNDw84SwnBicTb","v3crCaNAwg3IWDxgR9JkyzQkRi",53810515,1223,FALSE,267634,35,15,25,25,20,3,25,40,20,2,2,2,5
"PGURZ8UE1pQkHIz0VczfWYjV7H","5ezm3Cd2o0RNfCShciV529cX0d",2163378,402,TRUE,301002,35,15,24,26,20,3,25,40,60,4,2,NA,NA
"phcxTxH9BgT5SQiIyg1YtCxneu","nW166AtOwSAk2mMqQyZSAtJtVN",2056651,468,FALSE,222470,35,15,25,25,20,3,25,40,20,3,4,2,5
"pI8fQQsVU6YIl56WsMCPocSym6","LmdKrgHvJo0WDjnq1IVZoOlHIu",5060754,1230,FALSE,293200,35,15,25,25,20,1,22,40,20,3,2,2,5
"PINjsY74yNVTKoymt6iT80RXtN","FzI2KIxxnQOvkofChxfig4ZQQn",347337,12,TRUE,301004,30,30,25,25,20,3,25,40,20,NA,NA,NA,NA
"PiZBojrLKzJrBlbpTZOb5ARXs7","bkxm6YY80CaIT2F4Lqhn6mw9Bp",1117798,197,FALSE,144331,35,15,25,25,20,3,25,40,20,1,4,2,5
"PjrShPZoZqUWwbMZv4RM0wAWlb","u83tlie8w7JHSsQ20TGIJiipsv",8661761,464,TRUE,301000,35,15,25,10,20,3,25,40,60,NA,NA,NA,NA
"pKYgNFtCjpX9AeRdulNJMIuuI4","hy5wT1NnNEeZw9oCCcTLh9YXL4",29501707,1224,FALSE,240237,35,15,25,25,20,3,25,40,20,3,3,2,5
"PLCT9d3NxpfadwQhfyHaFjNS5H","XkDIoBULqUNg1awGijs4X1FWEI",5384448,1243,TRUE,301000,35,10,23,26,20,3,24,40,20,3,4,1,NA
"pm7IMeuT4KEOsCT0HbCSIPILRX","CBGiLGxvkRmc6sOY73y37yra36",180785,12,FALSE,173224,35,5,25,25,20,3,25,40,20,3,2,1,5
"PMGT1veji6Z9vWxEukGBZRGEQ6","xbwqbvFRFhLaocNz7unMPaAHw5",3306858,615,FALSE,140503,35,15,25,25,20,3,25,40,20,3,2,1,5
"Po83C4FkyXDqg6Dy4o6WBISTYu","DM4YCCho7SPKGlobprWmmqbgIR",1715949,77,FALSE,216302,35,15,25,25,20,3,25,40,20,1,4,2,5
"POEyv3X2brnZYcY6p2ouNeWz9Z","IkJRdcSBPKWlySmJAFc9VjRuxN",525197,39,FALSE,220253,35,15,25,25,20,3,25,40,20,3,2,2,5
"polRmZGHPqAfgOiFT9IboejPWi","2aY24rOycFgX9UMpMr1eXzwovy",49591829,1105,FALSE,223629,35,15,24,26,20,3,25,40,20,3,4,2,5
"pQ0Uo2Crm9l3hrN5xoKSn8zFyf","2N6y89seNg9iAibRusY4P2Oygg",329105,12,TRUE,301011,35,15,25,25,20,2,25,40,20,NA,NA,NA,NA
"pscT9BS5QHKwhexvz4aa7mCHDl","bn6FwNwaNmJt7Z4NA1NkSdpVfS",2679491,609,FALSE,189376,35,15,25,25,20,1,25,40,60,1,4,2,50
"PSXt5XcEEkyhw6QJ4ezl5XbNeP","mi1l72IJr0dLuCCh9IzuzAKbTu",1280067,681,FALSE,177186,35,5,25,25,20,3,25,40,20,3,2,2,5
"pUCyLOd7VBSml6R6Tn2qrEIipF","gv57Xx9xTRkQ3f9CNMD09Rhyh0",5001286,1255,FALSE,125426,35,15,25,25,20,3,25,40,20,3,2,2,5
"PUnK2jSFaWlF1nZIJ2BEkWqSnY","BExFhfZta49u2piHDS1hF8POnA",921788,99,FALSE,210598,35,10,25,25,20,3,23,40,60,3,2,2,50
"PVDxpu90lbqb3k34eE4ycBKLd4","c45XKysDY4Dk98Vjn2BVVMi5Js",10464128,2067,FALSE,216962,35,15,25,25,21,3,25,40,60,3,2,2,50
"pWlSgxrWF0ACROMBf9Ada6LERJ","kPbwASa3ZJ7VC5Off3edpxRkrK",13609210,1195,TRUE,301009,35,15,25,25,20,3,25,40,10,2,3,2,NA
"pWpYsffdFvtI5Ljbtd0mIHlNzL","kAKCcOM6Y0cF94tZZqyBu9tweo",211635,12,FALSE,192707,35,15,25,25,20,3,27,40,20,1,2,2,50
"pwuqENyuFevvfbIodBixnHZsm4","DcF0rqfnhhMykigRitbzGHyTy3",4226108,1170,FALSE,235115,35,1525,25,25,20,2,254,40,10,1,2,1,50
"PY7jnX5ezLw4CoJvpbj3ryibaj","28OvHdDAsXW1bjVd0vc6ptPoJX",4750027,1246,FALSE,294917,35,15,25,25,20,3,25,40,20,3,4,2,5
"pYoVIbnEGq3QcvLWGbtRtET8vD","67jk5cZiqeHm76zt1eX5dV5pKO",356341,26,FALSE,263386,35,10,25,25,20,3,25,40,20,1,2,2,5
"PznpLlzHd8ElksqfSAgSsrhSTi","Mzgv7GMZamHz2N8Y26XCrrda8f",2256853,412,FALSE,232322,35,15,24,24,20,3,25,40,20,4,4,2,5
"Q14feOyK8gWOFZv5CBCryVWhP2","WA6gtXFu9HT5lwC3hndLoch5mE",1070903,48,FALSE,188716,35,15,25,25,20,3,25,40,20,3,2,2,5
"Q3kM51GtKlrkDWqAsQdWisPrk4","dFSahkGDq7W8nmVyMzkdVUBUPR",4309079,1226,FALSE,198909,35,15,25,25,20,3,24,40,20,3,4,2,5
"q5I8Ua25CKUjol4j5Xlwm12GVG","ygpgYMajbDYic6leWkYp54mD6e",1816560,1091,FALSE,168329,30,5,25,25,20,3,25,40,20,3,3,2,8
"q8M1OtiK5XxQwePZ8qB0koCVGp","Tl3wWOchXPv3PoX8JtojsNY7sv",766615,78,FALSE,299447,35,5,25,25,20,3,25,40,20,3,3,2,5
"qa3ppxeEvsw1PCpf7uQW5tn55Q","d5op7vf6TdS158u7wTKNF83fOR",14190239,493,FALSE,199785,35,15,25,25,20,3,24,40,60,3,4,2,5
"qauCkUN7UI7GaNAWuDveOriuzJ","WlxmPZjVUbQ9u51puprmDss5uy",3807207,1113,TRUE,301003,35,15,25,25,20,2,24,40,10,NA,NA,NA,NA
"QAUkTsey9ODgQpjWYOVWgY6A3i","dho2Z98eUkpXfh2Hd20Hc48B7q",8966647,96,FALSE,264368,35,15,25,25,20,3,24,40,20,3,4,2,5
"QB6U3YvTLApCXVuP2Lm2wqC7JB","Pftbx2HIGEyRhIOQ9NTYtvyYAK",86005550,492,FALSE,217290,35,15,25,25,20,3,24,40,20,3,4,2,5
"Qe0oRFOO45l5cg1qElCywmp93c","FZfEBMeSpkERKo3zDfdsiGRbh7",3980914,12,TRUE,301002,35,15,25,25,20,4,24,40,60,NA,NA,NA,NA
"qe663jngwEdV7q1wdY2s7fIusA","481w0Tnkffr87YZWR1Mz3SDhQW",6239136,1178,TRUE,300998,35,15,25,25,20,2,23,40,20,1,2,NA,NA
"Qf8InXpWT2tEb8j20yHeWoFsjq","rcxZagwvS5QbEGTMCPG6GAQHyy",2017706,657,FALSE,272352,35,15,25,25,20,3,23,40,20,3,2,2,5
"qf8Z1EVNclvaDMxvZ5kUCS7NSp","RaSY10Bk3j8L03OFPTsOqn81kE",3306180,247,FALSE,288352,35,152,25,25,20,3,25,40,20,3,2,2,55
"Qg6bUkQ8mKJBK1iD9RKRRtfdJD","CrB0aIACTZe8P2t3D0DIdanVyJ",307742,12,TRUE,301005,35,15,25,25,20,3,25,40,20,4,NA,NA,NA
"qGjSvpui7Y4utcfet30bnl4A8w","cTCV5retxZgKZFKIU2Pc4mo85R",4705339,291,FALSE,280361,35,5,25,25,20,1,24,40,20,3,4,2,5
"QgVNZscryjhPhk0rTptj8b81Dj","x4ePhLJdqYF3ZvBVgv7pDyVOTZ",3227292,1254,FALSE,129583,35,15,25,25,20,3,24,40,20,3,4,2,5
"QhyYQ682XfvY7HPb3K8lzaKtpT","hh1txoe3ZmV44WMI1UOJtNOadD",1858682,445,FALSE,201635,35,15,24,26,20,3,25,40,20,2,2,2,50
"qISzE5Es2BjHt4leKbTmsVNnmz","FQWrssfNMUtRuVVOz0HUuHvyMd",198568,12,FALSE,187741,35,15,25,25,20,3,24,40,20,3,4,2,5
"Qit4GlSDOM6rUwpdApit6NOYFw","bWS1lWmjUe7otLmSU1kfK3NpC9",3594315,1191,TRUE,301012,35,15,25,25,20,3,25,40,60,2,2,2,NA
"QJJQh7P39GTUvTx76sH2UMeXEX","tKUCnPmKtDIo3xunvfMWFZXoHh",1216035,77,FALSE,106847,35,5,24,26,20,3,25,40,20,2,2,2,5
"QjzvTUEytBl6Oj29EQ9xwy0KEz","AcVLvTGNIwiSjIJkbt1v2yA3T7",2215951,257,TRUE,301001,35,15,50,60,22,2,28,40,60,1,2,2,NA
"QK8aTdXNXUxVfVl9BEYbGJ6Goo","ZE85DGdB129JVuj5GQliZ3YFu8",321787,12,TRUE,300995,35,15,25,25,20,3,24,40,20,3,4,NA,NA
"qLlVMx7CCKB9PkU5mLvqROaoEE","5uzTtIAJ9vgbcA3HMFe7cDgMn6",2522209,606,FALSE,167748,46,15,25,25,20,3,26,40,20,3,4,2,50
"QlNkWOoaujfdIxaPayvJYJXnOL","mZujHqbAdEe5GMQksPILawZQxe",5590772,857,FALSE,259315,35,30,25,25,20,3,23,40,60,2,2,2,5
"Qlt15OqQsekW6hmnYUkMtVSYGY","vARl18zT1nGVZBMEMlqIgfzXR6",1023153,51,FALSE,183435,35,15,25,25,20,3,25,40,20,3,4,2,5
"qM0kR0Bnt7Ir8GU2rmooeYKSLo","P6sS9OtwNIAEsCDQFlaKlap9sK",669458,42,FALSE,273199,35,15,25,25,20,3,24,40,20,3,4,2,5
"qmVhz6fngADkSe5dNSpHfjC3vM","I3zb2fG2OsFJwvAouwexTQ2VZj",631121,71,FALSE,204781,35,15,25,35,20,1,29,40,20,3,4,2,5
"QnwFyL2Vra8ndHDDsjyKTxOMGa","7wIE4Wj6hJxcDC67JGeurRfZZd",314358,12,TRUE,301001,35,15,25,25,20,4,24,40,20,1,NA,NA,NA
"qNWH94n53orGPYk7JaBGd4WCuX","wKiI42mUlsrhtxItRBISw5mFsF",4033242,611,FALSE,272209,35,15,25,75,20,3,25,40,60,1,2,2,5
"qQcKHBuJmHykjheS3EnvE690ku","14dkOqBQrcYKCiiLrFbQI1tRJ3",336613,13,FALSE,294005,35,15,NA,NA,20,3,25,40,20,1,2,2,5
"QQwm1xRJboZ0BgZJnxcwDAnTMT","lmm2zb5jMzv1lJk34WRvTghUEJ",27514129,27,TRUE,301003,35,15,25,25,20,3,24,40,20,3,NA,NA,NA
"qsMRibc2vaPhNTQ8zzbeiLm2RD","7xLuQZ3MNF8LfZcs6XouoHkOZX",3826417,204,TRUE,301002,35,15,25,25,20,4,24,40,20,NA,NA,NA,NA
"QSPUOdyzlnithSgIPVICIa0fDF","eJminzCYwXzWuaeO1Tij1bpqHt",24905551,659,FALSE,201826,35,15,25,25,18,3,24,40,20,1,4,2,45
"QSTxrsV3jbN5L5u0qpgm88XOtZ","efk9BFIUXVHNorHndAEiYnZl9y",666543,42,FALSE,300179,35,15,25,25,20,3,24,40,20,4,2,3,5
"QT556u0flkshOXQ1JyJRIEFsKe","aBnfDN9ABWedRw9HeqOm0Qw82v",4691464,1193,FALSE,205859,35,15,25,25,20,3,25,40,20,1,2,2,5
"qtfG7uzb7lt5WB9Y2sQRIsRMyo","XbWUgWGOZ7OBXjx5fkwmEK6WlH",6355533,1232,FALSE,181036,35,15,25,25,20,3,24,40,20,3,4,2,5
"QxDK03zEsulCXmE3DUL9hkvo8E","S160QiwWSeubLwYEkgWDqJbHno",1276363,417,FALSE,205685,35,5,90,90,20,3,25,40,20,2,2,2,50
"qxPAbAyC1SxPZb6K4RIARjfHgS","90mN3qHFdDGJlCJD3YQqTJanNe",3561951,1254,FALSE,162778,35,15,25,25,20,3,24,40,20,1,2,2,5
"qyko5S0A6fmK3MxbDcNRNv2YgZ","t1XoW6haajxvhocKaZF7BeV1ur",965790,620,FALSE,219035,35,15,40,30,20,2,25,40,20,3,2,3,5
"qZAjjsSuU91gfW0GSkHgSsqZDk","WCoTkiijFxlJ7MtFshZlMtW4Uq",1358334,70,TRUE,301001,35,5,25,25,20,2,25,40,20,2,1,2,NA
"QzKbLu1yAwJXZBLNUbH7Y0jYVy","K5WCsCEEnfhJ20BDHCS4KLMYRb",7536683,856,FALSE,248020,35,15,24,24,20,3,24,40,20,3,4,2,5
