"session_id","session_restart_id","time_elapsed","trial_index","custom_timer_ended_trial","trial_name","rt","ns_id","ns_response","wave","correct_answer","correct"
"Z74YBwECpL8QkLR6RuxT2rrff6","hkshJADA5gEvvtwdyiZzMC4WH7",17689728,1251,FALSE,"number_series_test_trial",9719,"NS_1","-2","3.0","-2",1
"Z74YBwECpL8QkLR6RuxT2rrff6","hkshJADA5gEvvtwdyiZzMC4WH7",17700170,1252,FALSE,"number_series_test_trial",10433,"NS_2","28","3.0","28",1
"Z74YBwECpL8QkLR6RuxT2rrff6","hkshJADA5gEvvtwdyiZzMC4WH7",17722654,1253,FALSE,"number_series_test_trial",22478,"NS_3","64","3.0","64",1
"Z74YBwECpL8QkLR6RuxT2rrff6","hkshJADA5gEvvtwdyiZzMC4WH7",17739366,1254,FALSE,"number_series_test_trial",16707,"NS_4","29","3.0","29",1
"Z74YBwECpL8QkLR6RuxT2rrff6","hkshJADA5gEvvtwdyiZzMC4WH7",17770370,1255,TRUE,"number_series_test_trial",30998,"NS_5","8","3.0","8/16",0
"Z74YBwECpL8QkLR6RuxT2rrff6","hkshJADA5gEvvtwdyiZzMC4WH7",17801373,1256,TRUE,"number_series_test_trial",30996,"NS_6",NA,"3.0","165",NA
"Z74YBwECpL8QkLR6RuxT2rrff6","hkshJADA5gEvvtwdyiZzMC4WH7",17828825,1257,FALSE,"number_series_test_trial",27447,"NS_7","20","3.0","43",0
"Z74YBwECpL8QkLR6RuxT2rrff6","hkshJADA5gEvvtwdyiZzMC4WH7",17838149,1258,FALSE,"number_series_test_trial",9318,"NS_8","8895","3.0","8900",0
"Z74YBwECpL8QkLR6RuxT2rrff6","hkshJADA5gEvvtwdyiZzMC4WH7",17869151,1259,TRUE,"number_series_test_trial",30996,"NS_9","12/","3.0","12/16",0
"NhLuEUpFKVLMXcgOH9FRZibbUN","8bqynu00xCMLlut8SOlhm9JjIj",1872406,1108,FALSE,"number_series_test_trial",14897,"NS_1","6","3.0","-2",0
"NhLuEUpFKVLMXcgOH9FRZibbUN","8bqynu00xCMLlut8SOlhm9JjIj",1878250,1109,FALSE,"number_series_test_trial",5833,"NS_2","30","3.0","28",0
"NhLuEUpFKVLMXcgOH9FRZibbUN","8bqynu00xCMLlut8SOlhm9JjIj",1884922,1110,FALSE,"number_series_test_trial",6662,"NS_3","50","3.0","64",0
"NhLuEUpFKVLMXcgOH9FRZibbUN","8bqynu00xCMLlut8SOlhm9JjIj",1890981,1111,FALSE,"number_series_test_trial",6050,"NS_4","34","3.0","29",0
"NhLuEUpFKVLMXcgOH9FRZibbUN","8bqynu00xCMLlut8SOlhm9JjIj",1913497,1112,FALSE,"number_series_test_trial",22506,"NS_5","3/22","3.0","8/16",0
"NhLuEUpFKVLMXcgOH9FRZibbUN","8bqynu00xCMLlut8SOlhm9JjIj",1920737,1113,FALSE,"number_series_test_trial",7228,"NS_6","172","3.0","165",0
"NhLuEUpFKVLMXcgOH9FRZibbUN","8bqynu00xCMLlut8SOlhm9JjIj",1928138,1114,FALSE,"number_series_test_trial",7390,"NS_7","4","3.0","43",0
"NhLuEUpFKVLMXcgOH9FRZibbUN","8bqynu00xCMLlut8SOlhm9JjIj",1936895,1115,FALSE,"number_series_test_trial",8747,"NS_8","8899","3.0","8900",0
"NhLuEUpFKVLMXcgOH9FRZibbUN","8bqynu00xCMLlut8SOlhm9JjIj",1950244,1116,FALSE,"number_series_test_trial",13333,"NS_9","9/12","3.0","12/16",0
"roE5s1646kIDOHR2ypn0gY8XIG","28TcpfsssHRGwhYTS43NorZ2aj",3309828,896,FALSE,"number_series_test_trial",8185,"NS_1","6","2.0","-2",0
"roE5s1646kIDOHR2ypn0gY8XIG","28TcpfsssHRGwhYTS43NorZ2aj",3319961,897,FALSE,"number_series_test_trial",10130,"NS_2","25","2.0","28",0
"roE5s1646kIDOHR2ypn0gY8XIG","28TcpfsssHRGwhYTS43NorZ2aj",3325407,898,FALSE,"number_series_test_trial",5443,"NS_3","67","2.0","64",0
"roE5s1646kIDOHR2ypn0gY8XIG","28TcpfsssHRGwhYTS43NorZ2aj",3333158,899,FALSE,"number_series_test_trial",7748,"NS_4","2","2.0","29",0
"roE5s1646kIDOHR2ypn0gY8XIG","28TcpfsssHRGwhYTS43NorZ2aj",3346583,900,FALSE,"number_series_test_trial",13422,"NS_5","3/23","2.0","8/16",0
"roE5s1646kIDOHR2ypn0gY8XIG","28TcpfsssHRGwhYTS43NorZ2aj",3350088,901,FALSE,"number_series_test_trial",3502,"NS_6","34","2.0","165",0
"roE5s1646kIDOHR2ypn0gY8XIG","28TcpfsssHRGwhYTS43NorZ2aj",3353914,902,FALSE,"number_series_test_trial",3824,"NS_7","6","2.0","43",0
"roE5s1646kIDOHR2ypn0gY8XIG","28TcpfsssHRGwhYTS43NorZ2aj",3358529,903,FALSE,"number_series_test_trial",4612,"NS_8","7887","2.0","8900",0
"roE5s1646kIDOHR2ypn0gY8XIG","28TcpfsssHRGwhYTS43NorZ2aj",3362846,904,FALSE,"number_series_test_trial",4316,"NS_9","6/8","2.0","12/16",0
"tLSjGm6Dqri4nsVHHnkVL8G3V4","VYycXONC2I51jJfJmnalaU8NU2",519073,76,FALSE,"number_series_test_trial",7385,"NS_1","-2","2.0","-2",1
"tLSjGm6Dqri4nsVHHnkVL8G3V4","VYycXONC2I51jJfJmnalaU8NU2",524962,77,FALSE,"number_series_test_trial",5888,"NS_2","28","2.0","28",1
"tLSjGm6Dqri4nsVHHnkVL8G3V4","VYycXONC2I51jJfJmnalaU8NU2",530833,78,FALSE,"number_series_test_trial",5870,"NS_3","64","2.0","64",1
"tLSjGm6Dqri4nsVHHnkVL8G3V4","VYycXONC2I51jJfJmnalaU8NU2",561838,79,TRUE,"number_series_test_trial",31002,"NS_4","27","2.0","29",0
"tLSjGm6Dqri4nsVHHnkVL8G3V4","VYycXONC2I51jJfJmnalaU8NU2",581793,80,FALSE,"number_series_test_trial",19953,"NS_5","8/16","2.0","8/16",1
"tLSjGm6Dqri4nsVHHnkVL8G3V4","VYycXONC2I51jJfJmnalaU8NU2",593074,81,FALSE,"number_series_test_trial",11280,"NS_6","164","2.0","165",0
"tLSjGm6Dqri4nsVHHnkVL8G3V4","VYycXONC2I51jJfJmnalaU8NU2",607899,82,FALSE,"number_series_test_trial",14823,"NS_7","50","2.0","43",0
"tLSjGm6Dqri4nsVHHnkVL8G3V4","VYycXONC2I51jJfJmnalaU8NU2",621718,83,FALSE,"number_series_test_trial",13819,"NS_8","8888","2.0","8900",0
"tLSjGm6Dqri4nsVHHnkVL8G3V4","VYycXONC2I51jJfJmnalaU8NU2",628062,84,FALSE,"number_series_test_trial",6342,"NS_9","10/14","2.0","12/16",0
"W6lW7tpcdPnwidSMJyh0KrZtZ9","FC4UOASx57sEFVAZBJFSxdRL5X",1802694,1347,FALSE,"number_series_test_trial",1772,"NS_1","1","3.0","-2",0
"W6lW7tpcdPnwidSMJyh0KrZtZ9","FC4UOASx57sEFVAZBJFSxdRL5X",1803950,1348,FALSE,"number_series_test_trial",1249,"NS_2","1","3.0","28",0
"W6lW7tpcdPnwidSMJyh0KrZtZ9","FC4UOASx57sEFVAZBJFSxdRL5X",1805086,1349,FALSE,"number_series_test_trial",1131,"NS_3","1","3.0","64",0
"W6lW7tpcdPnwidSMJyh0KrZtZ9","FC4UOASx57sEFVAZBJFSxdRL5X",1806621,1350,FALSE,"number_series_test_trial",1530,"NS_4","1","3.0","29",0
"W6lW7tpcdPnwidSMJyh0KrZtZ9","FC4UOASx57sEFVAZBJFSxdRL5X",1820364,1351,FALSE,"number_series_test_trial",13737,"NS_5","3/22","3.0","8/16",0
"W6lW7tpcdPnwidSMJyh0KrZtZ9","FC4UOASx57sEFVAZBJFSxdRL5X",1824244,1352,FALSE,"number_series_test_trial",3874,"NS_6","175","3.0","165",0
"W6lW7tpcdPnwidSMJyh0KrZtZ9","FC4UOASx57sEFVAZBJFSxdRL5X",1826859,1353,FALSE,"number_series_test_trial",2608,"NS_7","9","3.0","43",0
"W6lW7tpcdPnwidSMJyh0KrZtZ9","FC4UOASx57sEFVAZBJFSxdRL5X",1829202,1354,FALSE,"number_series_test_trial",2337,"NS_8","999","3.0","8900",0
"W6lW7tpcdPnwidSMJyh0KrZtZ9","FC4UOASx57sEFVAZBJFSxdRL5X",1836282,1355,FALSE,"number_series_test_trial",7074,"NS_9","8/13","3.0","12/16",0
"Ox2JDobTVCybEB6T15i8Cf82Z1","6tVhik6yMDBEBQwVOgIqfCrq0H",1995873,1133,FALSE,"number_series_test_trial",5546,"NS_1","6","2.0","-2",0
"Ox2JDobTVCybEB6T15i8Cf82Z1","6tVhik6yMDBEBQwVOgIqfCrq0H",2000211,1134,FALSE,"number_series_test_trial",4332,"NS_2","48","2.0","28",0
"Ox2JDobTVCybEB6T15i8Cf82Z1","6tVhik6yMDBEBQwVOgIqfCrq0H",2002291,1135,FALSE,"number_series_test_trial",2073,"NS_3","74","2.0","64",0
"Ox2JDobTVCybEB6T15i8Cf82Z1","6tVhik6yMDBEBQwVOgIqfCrq0H",2003871,1136,FALSE,"number_series_test_trial",1575,"NS_4","7","2.0","29",0
"Ox2JDobTVCybEB6T15i8Cf82Z1","6tVhik6yMDBEBQwVOgIqfCrq0H",2010924,1137,FALSE,"number_series_test_trial",7048,"NS_5","4/9","2.0","8/16",0
"Ox2JDobTVCybEB6T15i8Cf82Z1","6tVhik6yMDBEBQwVOgIqfCrq0H",2014732,1138,FALSE,"number_series_test_trial",3801,"NS_6","105","2.0","165",0
"Ox2JDobTVCybEB6T15i8Cf82Z1","6tVhik6yMDBEBQwVOgIqfCrq0H",2017627,1139,FALSE,"number_series_test_trial",2887,"NS_7","3","2.0","43",0
"Ox2JDobTVCybEB6T15i8Cf82Z1","6tVhik6yMDBEBQwVOgIqfCrq0H",2021618,1140,FALSE,"number_series_test_trial",3985,"NS_8","987","2.0","8900",0
"Ox2JDobTVCybEB6T15i8Cf82Z1","6tVhik6yMDBEBQwVOgIqfCrq0H",2027190,1141,FALSE,"number_series_test_trial",5565,"NS_9","3/8","2.0","12/16",0
"WiMJRTZtpieHRm3ClAWipoHr0C","SGb3o2ONPK215NplFlfdAm7wub",1128353,100,FALSE,"number_series_test_trial",14260,"NS_1","-2","2.0","-2",1
"WiMJRTZtpieHRm3ClAWipoHr0C","SGb3o2ONPK215NplFlfdAm7wub",1140887,101,FALSE,"number_series_test_trial",12533,"NS_2","28","2.0","28",1
"WiMJRTZtpieHRm3ClAWipoHr0C","SGb3o2ONPK215NplFlfdAm7wub",1171891,102,TRUE,"number_series_test_trial",31002,"NS_3",NA,"2.0","64",NA
"WiMJRTZtpieHRm3ClAWipoHr0C","SGb3o2ONPK215NplFlfdAm7wub",1176659,103,FALSE,"number_series_test_trial",4766,"NS_4","32","2.0","29",0
"WiMJRTZtpieHRm3ClAWipoHr0C","SGb3o2ONPK215NplFlfdAm7wub",1189734,104,FALSE,"number_series_test_trial",13073,"NS_5","5/16","2.0","8/16",0
"WiMJRTZtpieHRm3ClAWipoHr0C","SGb3o2ONPK215NplFlfdAm7wub",1200127,105,FALSE,"number_series_test_trial",10392,"NS_6","172","2.0","165",0
"WiMJRTZtpieHRm3ClAWipoHr0C","SGb3o2ONPK215NplFlfdAm7wub",1212569,106,FALSE,"number_series_test_trial",12441,"NS_7","3","2.0","43",0
"WiMJRTZtpieHRm3ClAWipoHr0C","SGb3o2ONPK215NplFlfdAm7wub",1219050,107,FALSE,"number_series_test_trial",6480,"NS_8","8000","2.0","8900",0
"WiMJRTZtpieHRm3ClAWipoHr0C","SGb3o2ONPK215NplFlfdAm7wub",1225475,108,FALSE,"number_series_test_trial",6423,"NS_9","10/14","2.0","12/16",0
"DebsBC0abituuuNqZbrWt3jR91","u09piBR9Rt2XBjdzMPHEKX1BQv",512686,107,FALSE,"number_series_test_trial",15402,"NS_1","6","3.0","-2",0
"DebsBC0abituuuNqZbrWt3jR91","u09piBR9Rt2XBjdzMPHEKX1BQv",522670,108,FALSE,"number_series_test_trial",9981,"NS_2","28","3.0","28",1
"DebsBC0abituuuNqZbrWt3jR91","u09piBR9Rt2XBjdzMPHEKX1BQv",543037,109,FALSE,"number_series_test_trial",20365,"NS_3","64","3.0","64",1
"DebsBC0abituuuNqZbrWt3jR91","u09piBR9Rt2XBjdzMPHEKX1BQv",560757,110,FALSE,"number_series_test_trial",17717,"NS_4","30","3.0","29",0
"DebsBC0abituuuNqZbrWt3jR91","u09piBR9Rt2XBjdzMPHEKX1BQv",591772,111,TRUE,"number_series_test_trial",31011,"NS_5","4","3.0","8/16",0
"DebsBC0abituuuNqZbrWt3jR91","u09piBR9Rt2XBjdzMPHEKX1BQv",606917,112,FALSE,"number_series_test_trial",15134,"NS_6","162","3.0","165",0
"DebsBC0abituuuNqZbrWt3jR91","u09piBR9Rt2XBjdzMPHEKX1BQv",614989,113,FALSE,"number_series_test_trial",8070,"NS_7","4","3.0","43",0
"DebsBC0abituuuNqZbrWt3jR91","u09piBR9Rt2XBjdzMPHEKX1BQv",630414,114,FALSE,"number_series_test_trial",15421,"NS_8","9990","3.0","8900",0
"DebsBC0abituuuNqZbrWt3jR91","u09piBR9Rt2XBjdzMPHEKX1BQv",661419,115,TRUE,"number_series_test_trial",31001,"NS_9","4","3.0","12/16",0
"pXLD8gCCp0YZ9CquUV1lQCIj5c","1zlxdqkJSNjpxeTuzeYDS0hy3y",2193921,1061,TRUE,"number_series_test_trial",31324,"NS_1",NA,"3.0","-2",NA
"pXLD8gCCp0YZ9CquUV1lQCIj5c","1zlxdqkJSNjpxeTuzeYDS0hy3y",2195642,1062,FALSE,"number_series_test_trial",1718,"NS_2","-2","3.0","28",0
"pXLD8gCCp0YZ9CquUV1lQCIj5c","1zlxdqkJSNjpxeTuzeYDS0hy3y",2211698,1063,FALSE,"number_series_test_trial",16054,"NS_3","60","3.0","64",0
"pXLD8gCCp0YZ9CquUV1lQCIj5c","1zlxdqkJSNjpxeTuzeYDS0hy3y",2233864,1064,FALSE,"number_series_test_trial",22161,"NS_4","30","3.0","29",0
"pXLD8gCCp0YZ9CquUV1lQCIj5c","1zlxdqkJSNjpxeTuzeYDS0hy3y",2265159,1065,TRUE,"number_series_test_trial",31291,"NS_5","10","3.0","8/16",0
"pXLD8gCCp0YZ9CquUV1lQCIj5c","1zlxdqkJSNjpxeTuzeYDS0hy3y",2276808,1066,FALSE,"number_series_test_trial",11647,"NS_6","152","3.0","165",0
"pXLD8gCCp0YZ9CquUV1lQCIj5c","1zlxdqkJSNjpxeTuzeYDS0hy3y",2297310,1067,FALSE,"number_series_test_trial",20498,"NS_7","10","3.0","43",0
"pXLD8gCCp0YZ9CquUV1lQCIj5c","1zlxdqkJSNjpxeTuzeYDS0hy3y",2328592,1068,TRUE,"number_series_test_trial",31279,"NS_8","89","3.0","8900",0
"pXLD8gCCp0YZ9CquUV1lQCIj5c","1zlxdqkJSNjpxeTuzeYDS0hy3y",2338519,1069,FALSE,"number_series_test_trial",9923,"NS_9","10/10","3.0","12/16",0
"rDRcOADIKvymJ2TSyULLnxWo4D","6buOomZW04tVoIyk2wo6RJC08Q",13794244,142,TRUE,"number_series_test_trial",31002,"NS_1",NA,"3.0","-2",NA
"rDRcOADIKvymJ2TSyULLnxWo4D","6buOomZW04tVoIyk2wo6RJC08Q",13811892,143,FALSE,"number_series_test_trial",17647,"NS_2","28","3.0","28",1
"rDRcOADIKvymJ2TSyULLnxWo4D","6buOomZW04tVoIyk2wo6RJC08Q",13842894,144,TRUE,"number_series_test_trial",31001,"NS_3",NA,"3.0","64",NA
"rDRcOADIKvymJ2TSyULLnxWo4D","6buOomZW04tVoIyk2wo6RJC08Q",13869722,145,FALSE,"number_series_test_trial",26827,"NS_4","29","3.0","29",1
"rDRcOADIKvymJ2TSyULLnxWo4D","6buOomZW04tVoIyk2wo6RJC08Q",13900724,146,TRUE,"number_series_test_trial",31001,"NS_5",NA,"3.0","8/16",NA
"rDRcOADIKvymJ2TSyULLnxWo4D","6buOomZW04tVoIyk2wo6RJC08Q",13921812,147,FALSE,"number_series_test_trial",21087,"NS_6","163","3.0","165",0
"rDRcOADIKvymJ2TSyULLnxWo4D","6buOomZW04tVoIyk2wo6RJC08Q",13952815,148,TRUE,"number_series_test_trial",31002,"NS_7",NA,"3.0","43",NA
"rDRcOADIKvymJ2TSyULLnxWo4D","6buOomZW04tVoIyk2wo6RJC08Q",13975310,149,FALSE,"number_series_test_trial",22494,"NS_8","8900","3.0","8900",1
"rDRcOADIKvymJ2TSyULLnxWo4D","6buOomZW04tVoIyk2wo6RJC08Q",14006311,150,TRUE,"number_series_test_trial",31000,"NS_9","10/","3.0","12/16",0
"q4nRVOcjo2BHXLaJItbKSgI6Cl","gkstQDYnOuTw7vuImoEZYZ5h09",4326955,1367,FALSE,"number_series_test_trial",10292,"NS_1","-2","3.0","-2",1
"q4nRVOcjo2BHXLaJItbKSgI6Cl","gkstQDYnOuTw7vuImoEZYZ5h09",4333669,1368,FALSE,"number_series_test_trial",6710,"NS_2","28","3.0","28",1
"q4nRVOcjo2BHXLaJItbKSgI6Cl","gkstQDYnOuTw7vuImoEZYZ5h09",4338325,1369,FALSE,"number_series_test_trial",4651,"NS_3","64","3.0","64",1
"q4nRVOcjo2BHXLaJItbKSgI6Cl","gkstQDYnOuTw7vuImoEZYZ5h09",4347730,1370,FALSE,"number_series_test_trial",9401,"NS_4","29","3.0","29",1
"q4nRVOcjo2BHXLaJItbKSgI6Cl","gkstQDYnOuTw7vuImoEZYZ5h09",4368379,1371,FALSE,"number_series_test_trial",20643,"NS_5","8/16","3.0","8/16",1
"q4nRVOcjo2BHXLaJItbKSgI6Cl","gkstQDYnOuTw7vuImoEZYZ5h09",4397866,1372,FALSE,"number_series_test_trial",29483,"NS_6","152","3.0","165",0
"q4nRVOcjo2BHXLaJItbKSgI6Cl","gkstQDYnOuTw7vuImoEZYZ5h09",4407829,1373,FALSE,"number_series_test_trial",9958,"NS_7","43","3.0","43",1
"q4nRVOcjo2BHXLaJItbKSgI6Cl","gkstQDYnOuTw7vuImoEZYZ5h09",4414788,1374,FALSE,"number_series_test_trial",6955,"NS_8","8900","3.0","8900",1
"q4nRVOcjo2BHXLaJItbKSgI6Cl","gkstQDYnOuTw7vuImoEZYZ5h09",4430094,1375,FALSE,"number_series_test_trial",15301,"NS_9","12/16","3.0","12/16",1
"Mx8vIXApijMaRfRVx5CwheNj7R","sRPWARk8wXzRjwNYFCV7c96tAO",3340595,199,FALSE,"number_series_test_trial",11717,"NS_1","-2","2.0","-2",1
"Mx8vIXApijMaRfRVx5CwheNj7R","sRPWARk8wXzRjwNYFCV7c96tAO",3351675,200,FALSE,"number_series_test_trial",11075,"NS_2","28","2.0","28",1
"Mx8vIXApijMaRfRVx5CwheNj7R","sRPWARk8wXzRjwNYFCV7c96tAO",3381920,201,FALSE,"number_series_test_trial",30241,"NS_3","64","2.0","64",1
"Mx8vIXApijMaRfRVx5CwheNj7R","sRPWARk8wXzRjwNYFCV7c96tAO",3400266,202,FALSE,"number_series_test_trial",18344,"NS_4","29","2.0","29",1
"Mx8vIXApijMaRfRVx5CwheNj7R","sRPWARk8wXzRjwNYFCV7c96tAO",3431272,203,TRUE,"number_series_test_trial",31001,"NS_5",NA,"2.0","8/16",NA
"Mx8vIXApijMaRfRVx5CwheNj7R","sRPWARk8wXzRjwNYFCV7c96tAO",3449794,204,FALSE,"number_series_test_trial",18519,"NS_6","154","2.0","165",0
"Mx8vIXApijMaRfRVx5CwheNj7R","sRPWARk8wXzRjwNYFCV7c96tAO",3474698,205,FALSE,"number_series_test_trial",24900,"NS_7","12","2.0","43",0
"Mx8vIXApijMaRfRVx5CwheNj7R","sRPWARk8wXzRjwNYFCV7c96tAO",3504696,206,FALSE,"number_series_test_trial",29994,"NS_8","9010","2.0","8900",0
"Mx8vIXApijMaRfRVx5CwheNj7R","sRPWARk8wXzRjwNYFCV7c96tAO",3530048,207,FALSE,"number_series_test_trial",25351,"NS_9","4/16","2.0","12/16",0
"Scbpoqeq5cPbK4S6JgkDakbaJk","Koo6td3nw4YcorjR8C72YXgklR",946912,600,FALSE,"number_series_test_trial",8767,"NS_1","-2","2.0","-2",1
"Scbpoqeq5cPbK4S6JgkDakbaJk","Koo6td3nw4YcorjR8C72YXgklR",953168,601,FALSE,"number_series_test_trial",6253,"NS_2","28","2.0","28",1
"Scbpoqeq5cPbK4S6JgkDakbaJk","Koo6td3nw4YcorjR8C72YXgklR",974138,602,FALSE,"number_series_test_trial",20968,"NS_3","67","2.0","64",0
"Scbpoqeq5cPbK4S6JgkDakbaJk","Koo6td3nw4YcorjR8C72YXgklR",993695,603,FALSE,"number_series_test_trial",19555,"NS_4","29","2.0","29",1
"Scbpoqeq5cPbK4S6JgkDakbaJk","Koo6td3nw4YcorjR8C72YXgklR",1025464,604,TRUE,"number_series_test_trial",31765,"NS_5",NA,"2.0","8/16",NA
"Scbpoqeq5cPbK4S6JgkDakbaJk","Koo6td3nw4YcorjR8C72YXgklR",1085465,605,TRUE,"number_series_test_trial",59996,"NS_6",NA,"2.0","165",NA
"Scbpoqeq5cPbK4S6JgkDakbaJk","Koo6td3nw4YcorjR8C72YXgklR",1117470,606,TRUE,"number_series_test_trial",31998,"NS_7",NA,"2.0","43",NA
"Scbpoqeq5cPbK4S6JgkDakbaJk","Koo6td3nw4YcorjR8C72YXgklR",1130047,607,FALSE,"number_series_test_trial",12574,"NS_8","8900","2.0","8900",1
"Scbpoqeq5cPbK4S6JgkDakbaJk","Koo6td3nw4YcorjR8C72YXgklR",1137335,608,FALSE,"number_series_test_trial",7285,"NS_9","12/14","2.0","12/16",0
"eFe95CeeQAgOoze8mvOzVQ4Hv6","VjYssdBmru7tOalICnyFgzyX5R",3474756,783,FALSE,"number_series_test_trial",11782,"NS_1","-2","3.0","-2",1
"eFe95CeeQAgOoze8mvOzVQ4Hv6","VjYssdBmru7tOalICnyFgzyX5R",3480755,784,FALSE,"number_series_test_trial",5998,"NS_2","28","3.0","28",1
"eFe95CeeQAgOoze8mvOzVQ4Hv6","VjYssdBmru7tOalICnyFgzyX5R",3487639,785,FALSE,"number_series_test_trial",6883,"NS_3","64","3.0","64",1
"eFe95CeeQAgOoze8mvOzVQ4Hv6","VjYssdBmru7tOalICnyFgzyX5R",3500870,786,FALSE,"number_series_test_trial",13230,"NS_4","29","3.0","29",1
"eFe95CeeQAgOoze8mvOzVQ4Hv6","VjYssdBmru7tOalICnyFgzyX5R",3525413,787,FALSE,"number_series_test_trial",24542,"NS_5","8/16","3.0","8/16",1
"eFe95CeeQAgOoze8mvOzVQ4Hv6","VjYssdBmru7tOalICnyFgzyX5R",3556415,788,TRUE,"number_series_test_trial",31001,"NS_6","164","3.0","165",0
"eFe95CeeQAgOoze8mvOzVQ4Hv6","VjYssdBmru7tOalICnyFgzyX5R",3575886,789,FALSE,"number_series_test_trial",19470,"NS_7","43","3.0","43",1
"eFe95CeeQAgOoze8mvOzVQ4Hv6","VjYssdBmru7tOalICnyFgzyX5R",3585779,790,FALSE,"number_series_test_trial",9891,"NS_8","8900","3.0","8900",1
"eFe95CeeQAgOoze8mvOzVQ4Hv6","VjYssdBmru7tOalICnyFgzyX5R",3612869,791,FALSE,"number_series_test_trial",27089,"NS_9","12/16","3.0","12/16",1
"bArB5qhI33ayqzPdBGfvyVkjoA","XtClsJspMTdNEi1tNhwFIm9Eme",586752,97,FALSE,"number_series_test_trial",12397,"NS_1","-2","3.0","-2",1
"bArB5qhI33ayqzPdBGfvyVkjoA","XtClsJspMTdNEi1tNhwFIm9Eme",598696,98,FALSE,"number_series_test_trial",11934,"NS_2","28","3.0","28",1
"bArB5qhI33ayqzPdBGfvyVkjoA","XtClsJspMTdNEi1tNhwFIm9Eme",620075,99,FALSE,"number_series_test_trial",21369,"NS_3","64","3.0","64",1
"bArB5qhI33ayqzPdBGfvyVkjoA","XtClsJspMTdNEi1tNhwFIm9Eme",644644,100,FALSE,"number_series_test_trial",24559,"NS_4","30","3.0","29",0
"bArB5qhI33ayqzPdBGfvyVkjoA","XtClsJspMTdNEi1tNhwFIm9Eme",674814,101,FALSE,"number_series_test_trial",30158,"NS_5","8/18","3.0","8/16",0
"bArB5qhI33ayqzPdBGfvyVkjoA","XtClsJspMTdNEi1tNhwFIm9Eme",705820,102,TRUE,"number_series_test_trial",30994,"NS_6",NA,"3.0","165",NA
"bArB5qhI33ayqzPdBGfvyVkjoA","XtClsJspMTdNEi1tNhwFIm9Eme",736827,103,TRUE,"number_series_test_trial",30997,"NS_7",NA,"3.0","43",NA
"bArB5qhI33ayqzPdBGfvyVkjoA","XtClsJspMTdNEi1tNhwFIm9Eme",751881,104,FALSE,"number_series_test_trial",15045,"NS_8","8891","3.0","8900",0
"bArB5qhI33ayqzPdBGfvyVkjoA","XtClsJspMTdNEi1tNhwFIm9Eme",767923,105,FALSE,"number_series_test_trial",16031,"NS_9","12/16","3.0","12/16",1
"MEb7oXeDnmtQ0bC3VQKEpwBH12","9NAozSzIlnTayeZyZgRhswlCbv",4272246,1308,FALSE,"number_series_test_trial",18233,"NS_1","-6","2.0","-2",0
"MEb7oXeDnmtQ0bC3VQKEpwBH12","9NAozSzIlnTayeZyZgRhswlCbv",4290464,1309,FALSE,"number_series_test_trial",18209,"NS_2","24","2.0","28",0
"MEb7oXeDnmtQ0bC3VQKEpwBH12","9NAozSzIlnTayeZyZgRhswlCbv",4303380,1310,FALSE,"number_series_test_trial",12913,"NS_3","55","2.0","64",0
"MEb7oXeDnmtQ0bC3VQKEpwBH12","9NAozSzIlnTayeZyZgRhswlCbv",4318980,1311,FALSE,"number_series_test_trial",15595,"NS_4","30","2.0","29",0
"MEb7oXeDnmtQ0bC3VQKEpwBH12","9NAozSzIlnTayeZyZgRhswlCbv",4341804,1312,FALSE,"number_series_test_trial",22822,"NS_5","5/15","2.0","8/16",0
"MEb7oXeDnmtQ0bC3VQKEpwBH12","9NAozSzIlnTayeZyZgRhswlCbv",4349808,1313,FALSE,"number_series_test_trial",7999,"NS_6","160","2.0","165",0
"MEb7oXeDnmtQ0bC3VQKEpwBH12","9NAozSzIlnTayeZyZgRhswlCbv",4356158,1314,FALSE,"number_series_test_trial",6344,"NS_7","5","2.0","43",0
"MEb7oXeDnmtQ0bC3VQKEpwBH12","9NAozSzIlnTayeZyZgRhswlCbv",4367650,1315,FALSE,"number_series_test_trial",11487,"NS_8","8000","2.0","8900",0
"MEb7oXeDnmtQ0bC3VQKEpwBH12","9NAozSzIlnTayeZyZgRhswlCbv",4387509,1316,FALSE,"number_series_test_trial",19856,"NS_9","10/15","2.0","12/16",0
"e93AKbQfQkjIawUmpnrHDyMCEn","r0TGG1ZeRumnSXFJlaV9vR7MW6",5248126,1281,FALSE,"number_series_test_trial",6146,"NS_1","5","2.0","-2",0
"e93AKbQfQkjIawUmpnrHDyMCEn","r0TGG1ZeRumnSXFJlaV9vR7MW6",5252567,1282,FALSE,"number_series_test_trial",4427,"NS_2","13","2.0","28",0
"e93AKbQfQkjIawUmpnrHDyMCEn","r0TGG1ZeRumnSXFJlaV9vR7MW6",5255721,1283,FALSE,"number_series_test_trial",3141,"NS_3","21","2.0","64",0
"e93AKbQfQkjIawUmpnrHDyMCEn","r0TGG1ZeRumnSXFJlaV9vR7MW6",5257753,1284,FALSE,"number_series_test_trial",2018,"NS_4","25","2.0","29",0
"e93AKbQfQkjIawUmpnrHDyMCEn","r0TGG1ZeRumnSXFJlaV9vR7MW6",5282351,1285,FALSE,"number_series_test_trial",24577,"NS_5","13/21","2.0","8/16",0
"e93AKbQfQkjIawUmpnrHDyMCEn","r0TGG1ZeRumnSXFJlaV9vR7MW6",5289817,1286,FALSE,"number_series_test_trial",7453,"NS_6","162","2.0","165",0
"e93AKbQfQkjIawUmpnrHDyMCEn","r0TGG1ZeRumnSXFJlaV9vR7MW6",5295161,1287,FALSE,"number_series_test_trial",5337,"NS_7","5","2.0","43",0
"e93AKbQfQkjIawUmpnrHDyMCEn","r0TGG1ZeRumnSXFJlaV9vR7MW6",5303885,1288,FALSE,"number_series_test_trial",8716,"NS_8","9050","2.0","8900",0
"e93AKbQfQkjIawUmpnrHDyMCEn","r0TGG1ZeRumnSXFJlaV9vR7MW6",5309880,1289,FALSE,"number_series_test_trial",5982,"NS_9","1/4","2.0","12/16",0
"jD9DLaZo1jwq1HQt3MjwiFBWPC","f1zw8EDQKr0B2RlgBrCHUD06aA",2085684,519,FALSE,"number_series_test_trial",17896,"NS_1","-2","2.0","-2",1
"jD9DLaZo1jwq1HQt3MjwiFBWPC","f1zw8EDQKr0B2RlgBrCHUD06aA",2091973,520,FALSE,"number_series_test_trial",6288,"NS_2","28","2.0","28",1
"jD9DLaZo1jwq1HQt3MjwiFBWPC","f1zw8EDQKr0B2RlgBrCHUD06aA",2113982,521,FALSE,"number_series_test_trial",22006,"NS_3","63","2.0","64",0
"jD9DLaZo1jwq1HQt3MjwiFBWPC","f1zw8EDQKr0B2RlgBrCHUD06aA",2140989,522,FALSE,"number_series_test_trial",27006,"NS_4","28","2.0","29",0
"jD9DLaZo1jwq1HQt3MjwiFBWPC","f1zw8EDQKr0B2RlgBrCHUD06aA",2169700,523,FALSE,"number_series_test_trial",28709,"NS_5","5/17","2.0","8/16",0
"jD9DLaZo1jwq1HQt3MjwiFBWPC","f1zw8EDQKr0B2RlgBrCHUD06aA",2200704,524,TRUE,"number_series_test_trial",31002,"NS_6","1","2.0","165",0
"jD9DLaZo1jwq1HQt3MjwiFBWPC","f1zw8EDQKr0B2RlgBrCHUD06aA",2222435,525,FALSE,"number_series_test_trial",21729,"NS_7","43","2.0","43",1
"jD9DLaZo1jwq1HQt3MjwiFBWPC","f1zw8EDQKr0B2RlgBrCHUD06aA",2244959,526,FALSE,"number_series_test_trial",22522,"NS_8","89","2.0","8900",0
"jD9DLaZo1jwq1HQt3MjwiFBWPC","f1zw8EDQKr0B2RlgBrCHUD06aA",2275962,527,TRUE,"number_series_test_trial",31001,"NS_9","9-","2.0","12/16",0
"ta2uwIm5tNBrAjeo5kjrWFX4rg","gwi1uKFa5uP0lnIovraWhhZ9ws",2448170,1012,TRUE,"number_series_test_trial",31000,"NS_1","18","3.0","-2",0
"ta2uwIm5tNBrAjeo5kjrWFX4rg","gwi1uKFa5uP0lnIovraWhhZ9ws",2479128,1013,FALSE,"number_series_test_trial",30952,"NS_2","27","3.0","28",0
"ta2uwIm5tNBrAjeo5kjrWFX4rg","gwi1uKFa5uP0lnIovraWhhZ9ws",2510132,1014,TRUE,"number_series_test_trial",30999,"NS_3",NA,"3.0","64",NA
"ta2uwIm5tNBrAjeo5kjrWFX4rg","gwi1uKFa5uP0lnIovraWhhZ9ws",2530851,1015,FALSE,"number_series_test_trial",20715,"NS_4","29","3.0","29",1
"ta2uwIm5tNBrAjeo5kjrWFX4rg","gwi1uKFa5uP0lnIovraWhhZ9ws",2561856,1016,TRUE,"number_series_test_trial",30999,"NS_5","8/","3.0","8/16",0
"ta2uwIm5tNBrAjeo5kjrWFX4rg","gwi1uKFa5uP0lnIovraWhhZ9ws",2579099,1017,FALSE,"number_series_test_trial",17238,"NS_6","165","3.0","165",1
"ta2uwIm5tNBrAjeo5kjrWFX4rg","gwi1uKFa5uP0lnIovraWhhZ9ws",2595088,1018,FALSE,"number_series_test_trial",15985,"NS_7","41","3.0","43",0
"ta2uwIm5tNBrAjeo5kjrWFX4rg","gwi1uKFa5uP0lnIovraWhhZ9ws",2611178,1019,FALSE,"number_series_test_trial",16086,"NS_8","8895","3.0","8900",0
"ta2uwIm5tNBrAjeo5kjrWFX4rg","gwi1uKFa5uP0lnIovraWhhZ9ws",2642182,1020,TRUE,"number_series_test_trial",30998,"NS_9","12/16","3.0","12/16",1
"C6FdaOsLL8vp2sdEAFgmzZ0hf3","SzS7arHMhlzKZx0dpCAQb5EaO9",3822743,951,FALSE,"number_series_test_trial",13573,"NS_1","6","2.0","-2",0
"C6FdaOsLL8vp2sdEAFgmzZ0hf3","SzS7arHMhlzKZx0dpCAQb5EaO9",3835623,952,FALSE,"number_series_test_trial",12874,"NS_2","28","2.0","28",1
"C6FdaOsLL8vp2sdEAFgmzZ0hf3","SzS7arHMhlzKZx0dpCAQb5EaO9",3858093,953,FALSE,"number_series_test_trial",22465,"NS_3","60","2.0","64",0
"C6FdaOsLL8vp2sdEAFgmzZ0hf3","SzS7arHMhlzKZx0dpCAQb5EaO9",3871537,954,FALSE,"number_series_test_trial",13438,"NS_4","30","2.0","29",0
"C6FdaOsLL8vp2sdEAFgmzZ0hf3","SzS7arHMhlzKZx0dpCAQb5EaO9",3902542,955,TRUE,"number_series_test_trial",30997,"NS_5","5/10","2.0","8/16",0
"C6FdaOsLL8vp2sdEAFgmzZ0hf3","SzS7arHMhlzKZx0dpCAQb5EaO9",3919034,956,FALSE,"number_series_test_trial",16486,"NS_6","165","2.0","165",1
"C6FdaOsLL8vp2sdEAFgmzZ0hf3","SzS7arHMhlzKZx0dpCAQb5EaO9",3929857,957,FALSE,"number_series_test_trial",10818,"NS_7","1","2.0","43",0
"C6FdaOsLL8vp2sdEAFgmzZ0hf3","SzS7arHMhlzKZx0dpCAQb5EaO9",3938192,958,FALSE,"number_series_test_trial",8329,"NS_8","7750","2.0","8900",0
"C6FdaOsLL8vp2sdEAFgmzZ0hf3","SzS7arHMhlzKZx0dpCAQb5EaO9",3951530,959,FALSE,"number_series_test_trial",13333,"NS_9","9/15","2.0","12/16",0
"tbCTQoAafrGj5o6gPjlOQQ6qwi","pwlPELCrjkCJEZrgVTkfFDQT0T",17325641,1346,FALSE,"number_series_test_trial",10052,"NS_1","2","3.0","-2",0
"tbCTQoAafrGj5o6gPjlOQQ6qwi","pwlPELCrjkCJEZrgVTkfFDQT0T",17334681,1347,FALSE,"number_series_test_trial",9036,"NS_2","28","3.0","28",1
"tbCTQoAafrGj5o6gPjlOQQ6qwi","pwlPELCrjkCJEZrgVTkfFDQT0T",17365683,1348,TRUE,"number_series_test_trial",30999,"NS_3",NA,"3.0","64",NA
"tbCTQoAafrGj5o6gPjlOQQ6qwi","pwlPELCrjkCJEZrgVTkfFDQT0T",17381125,1349,FALSE,"number_series_test_trial",15440,"NS_4","27","3.0","29",0
"tbCTQoAafrGj5o6gPjlOQQ6qwi","pwlPELCrjkCJEZrgVTkfFDQT0T",17395589,1350,FALSE,"number_series_test_trial",14460,"NS_5","4/6","3.0","8/16",0
"tbCTQoAafrGj5o6gPjlOQQ6qwi","pwlPELCrjkCJEZrgVTkfFDQT0T",17426591,1351,TRUE,"number_series_test_trial",30999,"NS_6",NA,"3.0","165",NA
"tbCTQoAafrGj5o6gPjlOQQ6qwi","pwlPELCrjkCJEZrgVTkfFDQT0T",17444761,1352,FALSE,"number_series_test_trial",18168,"NS_7","14","3.0","43",0
"tbCTQoAafrGj5o6gPjlOQQ6qwi","pwlPELCrjkCJEZrgVTkfFDQT0T",17463117,1353,FALSE,"number_series_test_trial",18353,"NS_8","890","3.0","8900",0
"tbCTQoAafrGj5o6gPjlOQQ6qwi","pwlPELCrjkCJEZrgVTkfFDQT0T",17470069,1354,FALSE,"number_series_test_trial",6949,"NS_9","10/10","3.0","12/16",0
"qy2ies2MnUrMAg3lka97bXkkxI","mculQR8IUlq2JRACpF34aZtwYL",2809374,549,FALSE,"number_series_test_trial",11100,"NS_1","-2","3.0","-2",1
"qy2ies2MnUrMAg3lka97bXkkxI","mculQR8IUlq2JRACpF34aZtwYL",2818584,550,FALSE,"number_series_test_trial",9208,"NS_2","28","3.0","28",1
"qy2ies2MnUrMAg3lka97bXkkxI","mculQR8IUlq2JRACpF34aZtwYL",2826164,551,FALSE,"number_series_test_trial",7579,"NS_3","64","3.0","64",1
"qy2ies2MnUrMAg3lka97bXkkxI","mculQR8IUlq2JRACpF34aZtwYL",2846612,552,FALSE,"number_series_test_trial",20447,"NS_4","29","3.0","29",1
"qy2ies2MnUrMAg3lka97bXkkxI","mculQR8IUlq2JRACpF34aZtwYL",2865322,553,FALSE,"number_series_test_trial",18709,"NS_5","8/16","3.0","8/16",1
"qy2ies2MnUrMAg3lka97bXkkxI","mculQR8IUlq2JRACpF34aZtwYL",2888904,554,FALSE,"number_series_test_trial",23581,"NS_6","150","3.0","165",0
"qy2ies2MnUrMAg3lka97bXkkxI","mculQR8IUlq2JRACpF34aZtwYL",2909598,555,FALSE,"number_series_test_trial",20692,"NS_7","10","3.0","43",0
"qy2ies2MnUrMAg3lka97bXkkxI","mculQR8IUlq2JRACpF34aZtwYL",2929888,556,FALSE,"number_series_test_trial",20289,"NS_8","8900","3.0","8900",1
"qy2ies2MnUrMAg3lka97bXkkxI","mculQR8IUlq2JRACpF34aZtwYL",2950328,557,FALSE,"number_series_test_trial",20439,"NS_9","10/16","3.0","12/16",0
"biu5BgZV2AePGJMpaEXIG7u0N3","MxUO7NYXSHEzSTEPowvnyo0Gds",2506462,461,FALSE,"number_series_test_trial",13082,"NS_1","-2","3.0","-2",1
"biu5BgZV2AePGJMpaEXIG7u0N3","MxUO7NYXSHEzSTEPowvnyo0Gds",2514944,462,FALSE,"number_series_test_trial",8479,"NS_2","28","3.0","28",1
"biu5BgZV2AePGJMpaEXIG7u0N3","MxUO7NYXSHEzSTEPowvnyo0Gds",2523471,463,FALSE,"number_series_test_trial",8525,"NS_3","64","3.0","64",1
"biu5BgZV2AePGJMpaEXIG7u0N3","MxUO7NYXSHEzSTEPowvnyo0Gds",2551017,464,FALSE,"number_series_test_trial",27543,"NS_4","17","3.0","29",0
"biu5BgZV2AePGJMpaEXIG7u0N3","MxUO7NYXSHEzSTEPowvnyo0Gds",2582022,465,TRUE,"number_series_test_trial",31001,"NS_5",NA,"3.0","8/16",NA
"biu5BgZV2AePGJMpaEXIG7u0N3","MxUO7NYXSHEzSTEPowvnyo0Gds",2613024,466,TRUE,"number_series_test_trial",30999,"NS_6",NA,"3.0","165",NA
"biu5BgZV2AePGJMpaEXIG7u0N3","MxUO7NYXSHEzSTEPowvnyo0Gds",2644028,467,TRUE,"number_series_test_trial",31000,"NS_7",NA,"3.0","43",NA
"biu5BgZV2AePGJMpaEXIG7u0N3","MxUO7NYXSHEzSTEPowvnyo0Gds",2675030,468,TRUE,"number_series_test_trial",30999,"NS_8",NA,"3.0","8900",NA
"biu5BgZV2AePGJMpaEXIG7u0N3","MxUO7NYXSHEzSTEPowvnyo0Gds",2706033,469,TRUE,"number_series_test_trial",30999,"NS_9","12/","3.0","12/16",0
"Itq6YDWXogHpqw9eUguLicnSnw","ifEhbrqrmUNVEo1tB64Wf7mgVa",2177013,720,FALSE,"number_series_test_trial",11354,"NS_1","-2","2.0","-2",1
"Itq6YDWXogHpqw9eUguLicnSnw","ifEhbrqrmUNVEo1tB64Wf7mgVa",2181977,721,FALSE,"number_series_test_trial",4963,"NS_2","28","2.0","28",1
"Itq6YDWXogHpqw9eUguLicnSnw","ifEhbrqrmUNVEo1tB64Wf7mgVa",2186383,722,FALSE,"number_series_test_trial",4404,"NS_3","64","2.0","64",1
"Itq6YDWXogHpqw9eUguLicnSnw","ifEhbrqrmUNVEo1tB64Wf7mgVa",2201958,723,FALSE,"number_series_test_trial",15574,"NS_4","29","2.0","29",1
"Itq6YDWXogHpqw9eUguLicnSnw","ifEhbrqrmUNVEo1tB64Wf7mgVa",2232961,724,TRUE,"number_series_test_trial",31001,"NS_5",NA,"2.0","8/16",NA
"Itq6YDWXogHpqw9eUguLicnSnw","ifEhbrqrmUNVEo1tB64Wf7mgVa",2263963,725,TRUE,"number_series_test_trial",31001,"NS_6",NA,"2.0","165",NA
"Itq6YDWXogHpqw9eUguLicnSnw","ifEhbrqrmUNVEo1tB64Wf7mgVa",2294964,726,TRUE,"number_series_test_trial",31000,"NS_7","49","2.0","43",0
"Itq6YDWXogHpqw9eUguLicnSnw","ifEhbrqrmUNVEo1tB64Wf7mgVa",2323039,727,FALSE,"number_series_test_trial",28074,"NS_8","8900","2.0","8900",1
"Itq6YDWXogHpqw9eUguLicnSnw","ifEhbrqrmUNVEo1tB64Wf7mgVa",2344753,728,FALSE,"number_series_test_trial",21713,"NS_9","9/12","2.0","12/16",0
"2bka8DkhxCpWogLHxC1m5mlG7F","TVecsGxPqLKLur5vVvdlLmuMIl",884108,956,FALSE,"number_series_test_trial",8421,"NS_1","2","2.0","-2",0
"2bka8DkhxCpWogLHxC1m5mlG7F","TVecsGxPqLKLur5vVvdlLmuMIl",903052,957,FALSE,"number_series_test_trial",18942,"NS_2","27","2.0","28",0
"2bka8DkhxCpWogLHxC1m5mlG7F","TVecsGxPqLKLur5vVvdlLmuMIl",915492,958,FALSE,"number_series_test_trial",12438,"NS_3","64","2.0","64",1
"2bka8DkhxCpWogLHxC1m5mlG7F","TVecsGxPqLKLur5vVvdlLmuMIl",923940,959,FALSE,"number_series_test_trial",8447,"NS_4","30","2.0","29",0
"2bka8DkhxCpWogLHxC1m5mlG7F","TVecsGxPqLKLur5vVvdlLmuMIl",947420,960,FALSE,"number_series_test_trial",23479,"NS_5","4/25","2.0","8/16",0
"2bka8DkhxCpWogLHxC1m5mlG7F","TVecsGxPqLKLur5vVvdlLmuMIl",952804,961,FALSE,"number_series_test_trial",5382,"NS_6","165","2.0","165",1
"2bka8DkhxCpWogLHxC1m5mlG7F","TVecsGxPqLKLur5vVvdlLmuMIl",961341,962,FALSE,"number_series_test_trial",8533,"NS_7","25","2.0","43",0
"2bka8DkhxCpWogLHxC1m5mlG7F","TVecsGxPqLKLur5vVvdlLmuMIl",972268,963,FALSE,"number_series_test_trial",10926,"NS_8","8800","2.0","8900",0
"2bka8DkhxCpWogLHxC1m5mlG7F","TVecsGxPqLKLur5vVvdlLmuMIl",980036,964,FALSE,"number_series_test_trial",7765,"NS_9","9/16","2.0","12/16",0
"haM8gzenfiOZvco8ocxKJo9hW8","xOqsGJM9dsJBiQmYq3CX0apP3d",42377,12,FALSE,"number_series_test_trial",10456,"NS_1","-2","3.0","-2",1
"haM8gzenfiOZvco8ocxKJo9hW8","xOqsGJM9dsJBiQmYq3CX0apP3d",50078,13,FALSE,"number_series_test_trial",7700,"NS_2","28","3.0","28",1
"haM8gzenfiOZvco8ocxKJo9hW8","xOqsGJM9dsJBiQmYq3CX0apP3d",69539,14,FALSE,"number_series_test_trial",19459,"NS_3","64","3.0","64",1
"haM8gzenfiOZvco8ocxKJo9hW8","xOqsGJM9dsJBiQmYq3CX0apP3d",82037,15,FALSE,"number_series_test_trial",12497,"NS_4","29","3.0","29",1
"haM8gzenfiOZvco8ocxKJo9hW8","xOqsGJM9dsJBiQmYq3CX0apP3d",113040,16,TRUE,"number_series_test_trial",31001,"NS_5",NA,"3.0","8/16",NA
"haM8gzenfiOZvco8ocxKJo9hW8","xOqsGJM9dsJBiQmYq3CX0apP3d",120419,17,FALSE,"number_series_test_trial",7377,"NS_6","168","3.0","165",0
"haM8gzenfiOZvco8ocxKJo9hW8","xOqsGJM9dsJBiQmYq3CX0apP3d",142817,18,FALSE,"number_series_test_trial",22396,"NS_7","15","3.0","43",0
"haM8gzenfiOZvco8ocxKJo9hW8","xOqsGJM9dsJBiQmYq3CX0apP3d",150462,19,FALSE,"number_series_test_trial",7643,"NS_8","8999","3.0","8900",0
"haM8gzenfiOZvco8ocxKJo9hW8","xOqsGJM9dsJBiQmYq3CX0apP3d",168486,20,FALSE,"number_series_test_trial",18024,"NS_9","10/16","3.0","12/16",0
"Ev2q5ZLI9arbNnB0IydGIw1Ms4","fLGVVYnLaslcLD1uJBoQg3rLBE",1034447,111,FALSE,"number_series_test_trial",26570,"NS_1","-3","2.0","-2",0
"Ev2q5ZLI9arbNnB0IydGIw1Ms4","fLGVVYnLaslcLD1uJBoQg3rLBE",1057414,112,FALSE,"number_series_test_trial",22960,"NS_2","28","2.0","28",1
"Ev2q5ZLI9arbNnB0IydGIw1Ms4","fLGVVYnLaslcLD1uJBoQg3rLBE",1078680,113,FALSE,"number_series_test_trial",21260,"NS_3","59","2.0","64",0
"Ev2q5ZLI9arbNnB0IydGIw1Ms4","fLGVVYnLaslcLD1uJBoQg3rLBE",1099429,114,FALSE,"number_series_test_trial",20743,"NS_4","29","2.0","29",1
"Ev2q5ZLI9arbNnB0IydGIw1Ms4","fLGVVYnLaslcLD1uJBoQg3rLBE",1130461,115,TRUE,"number_series_test_trial",31024,"NS_5",NA,"2.0","8/16",NA
"Ev2q5ZLI9arbNnB0IydGIw1Ms4","fLGVVYnLaslcLD1uJBoQg3rLBE",1161491,116,TRUE,"number_series_test_trial",31022,"NS_6",NA,"2.0","165",NA
"Ev2q5ZLI9arbNnB0IydGIw1Ms4","fLGVVYnLaslcLD1uJBoQg3rLBE",1192522,117,TRUE,"number_series_test_trial",31023,"NS_7",NA,"2.0","43",NA
"Ev2q5ZLI9arbNnB0IydGIw1Ms4","fLGVVYnLaslcLD1uJBoQg3rLBE",1223556,118,TRUE,"number_series_test_trial",31026,"NS_8",NA,"2.0","8900",NA
"Ev2q5ZLI9arbNnB0IydGIw1Ms4","fLGVVYnLaslcLD1uJBoQg3rLBE",1254590,119,TRUE,"number_series_test_trial",31027,"NS_9",NA,"2.0","12/16",NA
"8M8VKFcBeQZ2iUhV3RNIMF1N8Q","Eu6zPcb9jv0kZ1zXSzYnyIfInM",41440,12,FALSE,"number_series_test_trial",12443,"NS_1","-2","2.0","-2",1
"8M8VKFcBeQZ2iUhV3RNIMF1N8Q","Eu6zPcb9jv0kZ1zXSzYnyIfInM",52055,13,FALSE,"number_series_test_trial",10607,"NS_2","28","2.0","28",1
"8M8VKFcBeQZ2iUhV3RNIMF1N8Q","Eu6zPcb9jv0kZ1zXSzYnyIfInM",83094,14,TRUE,"number_series_test_trial",31030,"NS_3",NA,"2.0","64",NA
"8M8VKFcBeQZ2iUhV3RNIMF1N8Q","Eu6zPcb9jv0kZ1zXSzYnyIfInM",99969,15,FALSE,"number_series_test_trial",16854,"NS_4","29","2.0","29",1
"8M8VKFcBeQZ2iUhV3RNIMF1N8Q","Eu6zPcb9jv0kZ1zXSzYnyIfInM",124297,16,FALSE,"number_series_test_trial",24320,"NS_5","8/16","2.0","8/16",1
"8M8VKFcBeQZ2iUhV3RNIMF1N8Q","Eu6zPcb9jv0kZ1zXSzYnyIfInM",155335,17,TRUE,"number_series_test_trial",31030,"NS_6",NA,"2.0","165",NA
"8M8VKFcBeQZ2iUhV3RNIMF1N8Q","Eu6zPcb9jv0kZ1zXSzYnyIfInM",186370,18,TRUE,"number_series_test_trial",31023,"NS_7",NA,"2.0","43",NA
"8M8VKFcBeQZ2iUhV3RNIMF1N8Q","Eu6zPcb9jv0kZ1zXSzYnyIfInM",205432,19,FALSE,"number_series_test_trial",19050,"NS_8","8900","2.0","8900",1
"8M8VKFcBeQZ2iUhV3RNIMF1N8Q","Eu6zPcb9jv0kZ1zXSzYnyIfInM",236469,20,TRUE,"number_series_test_trial",31030,"NS_9","12/1","2.0","12/16",0
"InuVSSgb9zkRgNy4sBB990gX9a","gav3oBa6HBQDe2QUKqIRRL3Uzx",3680159,1211,FALSE,"number_series_test_trial",15973,"NS_1","-2","3.0","-2",1
"InuVSSgb9zkRgNy4sBB990gX9a","gav3oBa6HBQDe2QUKqIRRL3Uzx",3688113,1212,FALSE,"number_series_test_trial",7950,"NS_2","28","3.0","28",1
"InuVSSgb9zkRgNy4sBB990gX9a","gav3oBa6HBQDe2QUKqIRRL3Uzx",3713507,1213,FALSE,"number_series_test_trial",25390,"NS_3","64","3.0","64",1
"InuVSSgb9zkRgNy4sBB990gX9a","gav3oBa6HBQDe2QUKqIRRL3Uzx",3730469,1214,FALSE,"number_series_test_trial",16959,"NS_4","29","3.0","29",1
"InuVSSgb9zkRgNy4sBB990gX9a","gav3oBa6HBQDe2QUKqIRRL3Uzx",3761474,1215,TRUE,"number_series_test_trial",31001,"NS_5",NA,"3.0","8/16",NA
"InuVSSgb9zkRgNy4sBB990gX9a","gav3oBa6HBQDe2QUKqIRRL3Uzx",3792477,1216,TRUE,"number_series_test_trial",31000,"NS_6",NA,"3.0","165",NA
"InuVSSgb9zkRgNy4sBB990gX9a","gav3oBa6HBQDe2QUKqIRRL3Uzx",3823480,1217,TRUE,"number_series_test_trial",31000,"NS_7",NA,"3.0","43",NA
"InuVSSgb9zkRgNy4sBB990gX9a","gav3oBa6HBQDe2QUKqIRRL3Uzx",3854482,1218,TRUE,"number_series_test_trial",31000,"NS_8",NA,"3.0","8900",NA
"InuVSSgb9zkRgNy4sBB990gX9a","gav3oBa6HBQDe2QUKqIRRL3Uzx",3877951,1219,FALSE,"number_series_test_trial",23466,"NS_9","12/16","3.0","12/16",1
"dYGsqbBUw2jxZFU5A1H7OG25F1","C9fu6ZL6YnGCdCQllG6YnrMjpF",9031073,810,FALSE,"number_series_test_trial",22292,"NS_1","-2","2.0","-2",1
"dYGsqbBUw2jxZFU5A1H7OG25F1","C9fu6ZL6YnGCdCQllG6YnrMjpF",9040096,811,FALSE,"number_series_test_trial",9008,"NS_2","28","2.0","28",1
"dYGsqbBUw2jxZFU5A1H7OG25F1","C9fu6ZL6YnGCdCQllG6YnrMjpF",9062893,812,FALSE,"number_series_test_trial",22780,"NS_3","68","2.0","64",0
"dYGsqbBUw2jxZFU5A1H7OG25F1","C9fu6ZL6YnGCdCQllG6YnrMjpF",9087917,813,FALSE,"number_series_test_trial",25009,"NS_4","27","2.0","29",0
"dYGsqbBUw2jxZFU5A1H7OG25F1","C9fu6ZL6YnGCdCQllG6YnrMjpF",9111574,814,FALSE,"number_series_test_trial",23644,"NS_5","8/16","2.0","8/16",1
"dYGsqbBUw2jxZFU5A1H7OG25F1","C9fu6ZL6YnGCdCQllG6YnrMjpF",9133824,815,FALSE,"number_series_test_trial",22232,"NS_6","127","2.0","165",0
"dYGsqbBUw2jxZFU5A1H7OG25F1","C9fu6ZL6YnGCdCQllG6YnrMjpF",9154845,816,FALSE,"number_series_test_trial",21005,"NS_7","7","2.0","43",0
"dYGsqbBUw2jxZFU5A1H7OG25F1","C9fu6ZL6YnGCdCQllG6YnrMjpF",9170559,817,FALSE,"number_series_test_trial",15700,"NS_8","8900","2.0","8900",1
"dYGsqbBUw2jxZFU5A1H7OG25F1","C9fu6ZL6YnGCdCQllG6YnrMjpF",9191200,818,FALSE,"number_series_test_trial",20627,"NS_9","3/16","2.0","12/16",0
"E3zMBre7EWQqIFWrLWlBW7xF35","8dl4eHPAHF9qFgZ1NN8pxplDPY",1700823,236,FALSE,"number_series_test_trial",11899,"NS_1","-2","3.0","-2",1
"E3zMBre7EWQqIFWrLWlBW7xF35","8dl4eHPAHF9qFgZ1NN8pxplDPY",1713309,237,FALSE,"number_series_test_trial",12484,"NS_2","28","3.0","28",1
"E3zMBre7EWQqIFWrLWlBW7xF35","8dl4eHPAHF9qFgZ1NN8pxplDPY",1743970,238,FALSE,"number_series_test_trial",30659,"NS_3","64","3.0","64",1
"E3zMBre7EWQqIFWrLWlBW7xF35","8dl4eHPAHF9qFgZ1NN8pxplDPY",1760145,239,FALSE,"number_series_test_trial",16173,"NS_4","29","3.0","29",1
"E3zMBre7EWQqIFWrLWlBW7xF35","8dl4eHPAHF9qFgZ1NN8pxplDPY",1791154,240,TRUE,"number_series_test_trial",31007,"NS_5",NA,"3.0","8/16",NA
"E3zMBre7EWQqIFWrLWlBW7xF35","8dl4eHPAHF9qFgZ1NN8pxplDPY",1818260,241,FALSE,"number_series_test_trial",27104,"NS_6","150","3.0","165",0
"E3zMBre7EWQqIFWrLWlBW7xF35","8dl4eHPAHF9qFgZ1NN8pxplDPY",1841337,242,FALSE,"number_series_test_trial",23075,"NS_7","43","3.0","43",1
"E3zMBre7EWQqIFWrLWlBW7xF35","8dl4eHPAHF9qFgZ1NN8pxplDPY",1853392,243,FALSE,"number_series_test_trial",12052,"NS_8","8900","3.0","8900",1
"E3zMBre7EWQqIFWrLWlBW7xF35","8dl4eHPAHF9qFgZ1NN8pxplDPY",1877009,244,FALSE,"number_series_test_trial",23614,"NS_9","10/14","3.0","12/16",0
"ZT0jyke8Yvldqb506vgclgoazI","gQ71eSoOo6Ah16HDelPatWOwiG",2747793,1145,FALSE,"number_series_test_trial",6633,"NS_1","2","3.0","-2",0
"ZT0jyke8Yvldqb506vgclgoazI","gQ71eSoOo6Ah16HDelPatWOwiG",2756212,1146,FALSE,"number_series_test_trial",8418,"NS_2","28","3.0","28",1
"ZT0jyke8Yvldqb506vgclgoazI","gQ71eSoOo6Ah16HDelPatWOwiG",2783409,1147,FALSE,"number_series_test_trial",27196,"NS_3","64","3.0","64",1
"ZT0jyke8Yvldqb506vgclgoazI","gQ71eSoOo6Ah16HDelPatWOwiG",2798779,1148,FALSE,"number_series_test_trial",15368,"NS_4","30","3.0","29",0
"ZT0jyke8Yvldqb506vgclgoazI","gQ71eSoOo6Ah16HDelPatWOwiG",2814772,1149,FALSE,"number_series_test_trial",15992,"NS_5","8/16","3.0","8/16",1
"ZT0jyke8Yvldqb506vgclgoazI","gQ71eSoOo6Ah16HDelPatWOwiG",2845774,1150,TRUE,"number_series_test_trial",31000,"NS_6",NA,"3.0","165",NA
"ZT0jyke8Yvldqb506vgclgoazI","gQ71eSoOo6Ah16HDelPatWOwiG",2868300,1151,FALSE,"number_series_test_trial",22525,"NS_7","40","3.0","43",0
"ZT0jyke8Yvldqb506vgclgoazI","gQ71eSoOo6Ah16HDelPatWOwiG",2891617,1152,FALSE,"number_series_test_trial",23315,"NS_8","8900","3.0","8900",1
"ZT0jyke8Yvldqb506vgclgoazI","gQ71eSoOo6Ah16HDelPatWOwiG",2916292,1153,FALSE,"number_series_test_trial",24675,"NS_9","10/16","3.0","12/16",0
"MHzEVEOUqQdyi9lBwTBhVZB0yz","dFfUA2D0zXIpJWKvKAXMa2MV4K",3004975,704,FALSE,"number_series_test_trial",7332,"NS_1","5","3.0","-2",0
"MHzEVEOUqQdyi9lBwTBhVZB0yz","dFfUA2D0zXIpJWKvKAXMa2MV4K",3014600,705,FALSE,"number_series_test_trial",9620,"NS_2","25","3.0","28",0
"MHzEVEOUqQdyi9lBwTBhVZB0yz","dFfUA2D0zXIpJWKvKAXMa2MV4K",3021152,706,FALSE,"number_series_test_trial",6547,"NS_3","54","3.0","64",0
"MHzEVEOUqQdyi9lBwTBhVZB0yz","dFfUA2D0zXIpJWKvKAXMa2MV4K",3030347,707,FALSE,"number_series_test_trial",9190,"NS_4","32","3.0","29",0
"MHzEVEOUqQdyi9lBwTBhVZB0yz","dFfUA2D0zXIpJWKvKAXMa2MV4K",3045850,708,FALSE,"number_series_test_trial",15498,"NS_5","9/12","3.0","8/16",0
"MHzEVEOUqQdyi9lBwTBhVZB0yz","dFfUA2D0zXIpJWKvKAXMa2MV4K",3061110,709,FALSE,"number_series_test_trial",15256,"NS_6","172","3.0","165",0
"MHzEVEOUqQdyi9lBwTBhVZB0yz","dFfUA2D0zXIpJWKvKAXMa2MV4K",3067263,710,FALSE,"number_series_test_trial",6148,"NS_7","4","3.0","43",0
"MHzEVEOUqQdyi9lBwTBhVZB0yz","dFfUA2D0zXIpJWKvKAXMa2MV4K",3090421,711,FALSE,"number_series_test_trial",23155,"NS_8","8990","3.0","8900",0
"MHzEVEOUqQdyi9lBwTBhVZB0yz","dFfUA2D0zXIpJWKvKAXMa2MV4K",3107885,712,FALSE,"number_series_test_trial",17458,"NS_9","16/24","3.0","12/16",0
"CZ6NQEOfRqsY44RJ2lktZVRGRA","yi4vroFvczRyyTDshQZzBZkGeH",3683173,1310,FALSE,"number_series_test_trial",10770,"NS_1","0","3.0","-2",0
"CZ6NQEOfRqsY44RJ2lktZVRGRA","yi4vroFvczRyyTDshQZzBZkGeH",3689685,1311,FALSE,"number_series_test_trial",6506,"NS_2","28","3.0","28",1
"CZ6NQEOfRqsY44RJ2lktZVRGRA","yi4vroFvczRyyTDshQZzBZkGeH",3702533,1312,FALSE,"number_series_test_trial",12843,"NS_3","63","3.0","64",0
"CZ6NQEOfRqsY44RJ2lktZVRGRA","yi4vroFvczRyyTDshQZzBZkGeH",3718541,1313,FALSE,"number_series_test_trial",16003,"NS_4","29","3.0","29",1
"CZ6NQEOfRqsY44RJ2lktZVRGRA","yi4vroFvczRyyTDshQZzBZkGeH",3742917,1314,FALSE,"number_series_test_trial",24371,"NS_5","8/16","3.0","8/16",1
"CZ6NQEOfRqsY44RJ2lktZVRGRA","yi4vroFvczRyyTDshQZzBZkGeH",3758700,1315,FALSE,"number_series_test_trial",15778,"NS_6","156","3.0","165",0
"CZ6NQEOfRqsY44RJ2lktZVRGRA","yi4vroFvczRyyTDshQZzBZkGeH",3773292,1316,FALSE,"number_series_test_trial",14587,"NS_7","23","3.0","43",0
"CZ6NQEOfRqsY44RJ2lktZVRGRA","yi4vroFvczRyyTDshQZzBZkGeH",3785764,1317,FALSE,"number_series_test_trial",12466,"NS_8","8895","3.0","8900",0
"CZ6NQEOfRqsY44RJ2lktZVRGRA","yi4vroFvczRyyTDshQZzBZkGeH",3809476,1318,FALSE,"number_series_test_trial",23706,"NS_9","11/16","3.0","12/16",0
"o9cl9d8I9GR8WwsVdnJfEPnqyR","JSmtZPSRKwaYA3VSSe0dkN8U6f",2267103,1170,FALSE,"number_series_test_trial",7182,"NS_1","2","2.0","-2",0
"o9cl9d8I9GR8WwsVdnJfEPnqyR","JSmtZPSRKwaYA3VSSe0dkN8U6f",2278043,1171,FALSE,"number_series_test_trial",10928,"NS_2","23","2.0","28",0
"o9cl9d8I9GR8WwsVdnJfEPnqyR","JSmtZPSRKwaYA3VSSe0dkN8U6f",2289968,1172,FALSE,"number_series_test_trial",11915,"NS_3","70","2.0","64",0
"o9cl9d8I9GR8WwsVdnJfEPnqyR","JSmtZPSRKwaYA3VSSe0dkN8U6f",2298651,1173,FALSE,"number_series_test_trial",8675,"NS_4","30","2.0","29",0
"o9cl9d8I9GR8WwsVdnJfEPnqyR","JSmtZPSRKwaYA3VSSe0dkN8U6f",2318064,1174,FALSE,"number_series_test_trial",19401,"NS_5","3/10","2.0","8/16",0
"o9cl9d8I9GR8WwsVdnJfEPnqyR","JSmtZPSRKwaYA3VSSe0dkN8U6f",2346850,1175,FALSE,"number_series_test_trial",28773,"NS_6","160","2.0","165",0
"o9cl9d8I9GR8WwsVdnJfEPnqyR","JSmtZPSRKwaYA3VSSe0dkN8U6f",2357199,1176,FALSE,"number_series_test_trial",10336,"NS_7","18","2.0","43",0
"o9cl9d8I9GR8WwsVdnJfEPnqyR","JSmtZPSRKwaYA3VSSe0dkN8U6f",2363319,1177,FALSE,"number_series_test_trial",6108,"NS_8","5000","2.0","8900",0
"o9cl9d8I9GR8WwsVdnJfEPnqyR","JSmtZPSRKwaYA3VSSe0dkN8U6f",2384748,1178,FALSE,"number_series_test_trial",21417,"NS_9","10/24","2.0","12/16",0
"TmDcNAe6FRG5OYjfe8OcTpBEk5","ip0JlXiSn9k9G2TnglevTKtTDT",4054805,709,FALSE,"number_series_test_trial",10671,"NS_1","-2","3.0","-2",1
"TmDcNAe6FRG5OYjfe8OcTpBEk5","ip0JlXiSn9k9G2TnglevTKtTDT",4069907,710,FALSE,"number_series_test_trial",15100,"NS_2","28","3.0","28",1
"TmDcNAe6FRG5OYjfe8OcTpBEk5","ip0JlXiSn9k9G2TnglevTKtTDT",4078387,711,FALSE,"number_series_test_trial",8475,"NS_3","64","3.0","64",1
"TmDcNAe6FRG5OYjfe8OcTpBEk5","ip0JlXiSn9k9G2TnglevTKtTDT",4109395,712,TRUE,"number_series_test_trial",31005,"NS_4","29","3.0","29",1
"TmDcNAe6FRG5OYjfe8OcTpBEk5","ip0JlXiSn9k9G2TnglevTKtTDT",4138952,713,FALSE,"number_series_test_trial",29553,"NS_5","8/16","3.0","8/16",1
"TmDcNAe6FRG5OYjfe8OcTpBEk5","ip0JlXiSn9k9G2TnglevTKtTDT",4169958,714,TRUE,"number_series_test_trial",31003,"NS_6",NA,"3.0","165",NA
"TmDcNAe6FRG5OYjfe8OcTpBEk5","ip0JlXiSn9k9G2TnglevTKtTDT",4196128,715,FALSE,"number_series_test_trial",26167,"NS_7","44","3.0","43",0
"TmDcNAe6FRG5OYjfe8OcTpBEk5","ip0JlXiSn9k9G2TnglevTKtTDT",4215969,716,FALSE,"number_series_test_trial",19837,"NS_8","8900","3.0","8900",1
"TmDcNAe6FRG5OYjfe8OcTpBEk5","ip0JlXiSn9k9G2TnglevTKtTDT",4242659,717,FALSE,"number_series_test_trial",26687,"NS_9","12/14","3.0","12/16",0
"wgxtKbDhWVjtCDxLrkIFfBb763","SplEYzOeVyHRwvW86a6DC3JqEy",436682,28,FALSE,"number_series_test_trial",13793,"NS_1","-2","3.0","-2",1
"wgxtKbDhWVjtCDxLrkIFfBb763","SplEYzOeVyHRwvW86a6DC3JqEy",448398,29,FALSE,"number_series_test_trial",11713,"NS_2","28","3.0","28",1
"wgxtKbDhWVjtCDxLrkIFfBb763","SplEYzOeVyHRwvW86a6DC3JqEy",479408,30,TRUE,"number_series_test_trial",31008,"NS_3",NA,"3.0","64",NA
"wgxtKbDhWVjtCDxLrkIFfBb763","SplEYzOeVyHRwvW86a6DC3JqEy",496281,31,FALSE,"number_series_test_trial",16872,"NS_4","27","3.0","29",0
"wgxtKbDhWVjtCDxLrkIFfBb763","SplEYzOeVyHRwvW86a6DC3JqEy",525231,32,FALSE,"number_series_test_trial",28948,"NS_5","8/16","3.0","8/16",1
"wgxtKbDhWVjtCDxLrkIFfBb763","SplEYzOeVyHRwvW86a6DC3JqEy",555100,33,FALSE,"number_series_test_trial",29867,"NS_6","160","3.0","165",0
"wgxtKbDhWVjtCDxLrkIFfBb763","SplEYzOeVyHRwvW86a6DC3JqEy",583830,34,FALSE,"number_series_test_trial",28728,"NS_7","40","3.0","43",0
"wgxtKbDhWVjtCDxLrkIFfBb763","SplEYzOeVyHRwvW86a6DC3JqEy",605463,35,FALSE,"number_series_test_trial",21630,"NS_8","8999","3.0","8900",0
"wgxtKbDhWVjtCDxLrkIFfBb763","SplEYzOeVyHRwvW86a6DC3JqEy",634631,36,FALSE,"number_series_test_trial",29167,"NS_9","12/16","3.0","12/16",1
"Gs5GNIfI1EsQ3Ful5CBfylBy21","y6arfa2UxXISAjMLxQhFNIqc8C",4212171,1242,FALSE,"number_series_test_trial",20280,"NS_1","-2","3.0","-2",1
"Gs5GNIfI1EsQ3Ful5CBfylBy21","y6arfa2UxXISAjMLxQhFNIqc8C",4223122,1243,FALSE,"number_series_test_trial",10949,"NS_2","28","3.0","28",1
"Gs5GNIfI1EsQ3Ful5CBfylBy21","y6arfa2UxXISAjMLxQhFNIqc8C",4251639,1244,FALSE,"number_series_test_trial",28514,"NS_3","64","3.0","64",1
"Gs5GNIfI1EsQ3Ful5CBfylBy21","y6arfa2UxXISAjMLxQhFNIqc8C",4268027,1245,FALSE,"number_series_test_trial",16386,"NS_4","29","3.0","29",1
"Gs5GNIfI1EsQ3Ful5CBfylBy21","y6arfa2UxXISAjMLxQhFNIqc8C",4294439,1246,FALSE,"number_series_test_trial",26411,"NS_5","8/16","3.0","8/16",1
"Gs5GNIfI1EsQ3Ful5CBfylBy21","y6arfa2UxXISAjMLxQhFNIqc8C",4325442,1247,TRUE,"number_series_test_trial",31002,"NS_6",NA,"3.0","165",NA
"Gs5GNIfI1EsQ3Ful5CBfylBy21","y6arfa2UxXISAjMLxQhFNIqc8C",4349519,1248,FALSE,"number_series_test_trial",24074,"NS_7","43","3.0","43",1
"Gs5GNIfI1EsQ3Ful5CBfylBy21","y6arfa2UxXISAjMLxQhFNIqc8C",4374886,1249,FALSE,"number_series_test_trial",25365,"NS_8","9990","3.0","8900",0
"Gs5GNIfI1EsQ3Ful5CBfylBy21","y6arfa2UxXISAjMLxQhFNIqc8C",4396717,1250,FALSE,"number_series_test_trial",21829,"NS_9","24/36","3.0","12/16",0
"N5lNa4Sc3baOKPmS2V3PK3Wbf2","5ZMtyG0MTifonXeP83omGmbZxP",64750,13,FALSE,"number_series_test_trial",21221,"NS_1","12","2.0","-2",0
"N5lNa4Sc3baOKPmS2V3PK3Wbf2","5ZMtyG0MTifonXeP83omGmbZxP",87153,14,FALSE,"number_series_test_trial",22365,"NS_2","9","2.0","28",0
"N5lNa4Sc3baOKPmS2V3PK3Wbf2","5ZMtyG0MTifonXeP83omGmbZxP",97032,15,FALSE,"number_series_test_trial",9858,"NS_3","76","2.0","64",0
"N5lNa4Sc3baOKPmS2V3PK3Wbf2","5ZMtyG0MTifonXeP83omGmbZxP",119218,16,FALSE,"number_series_test_trial",22168,"NS_4","13","2.0","29",0
"N5lNa4Sc3baOKPmS2V3PK3Wbf2","5ZMtyG0MTifonXeP83omGmbZxP",150237,17,TRUE,"number_series_test_trial",30994,"NS_5",NA,"2.0","8/16",NA
"N5lNa4Sc3baOKPmS2V3PK3Wbf2","5ZMtyG0MTifonXeP83omGmbZxP",162687,18,FALSE,"number_series_test_trial",12385,"NS_6","166","2.0","165",0
"N5lNa4Sc3baOKPmS2V3PK3Wbf2","5ZMtyG0MTifonXeP83omGmbZxP",184234,19,FALSE,"number_series_test_trial",21523,"NS_7","5","2.0","43",0
"N5lNa4Sc3baOKPmS2V3PK3Wbf2","5ZMtyG0MTifonXeP83omGmbZxP",192699,20,FALSE,"number_series_test_trial",8442,"NS_8","7000","2.0","8900",0
"N5lNa4Sc3baOKPmS2V3PK3Wbf2","5ZMtyG0MTifonXeP83omGmbZxP",222371,21,FALSE,"number_series_test_trial",29651,"NS_9","5/6","2.0","12/16",0
"2TBHnZOJUYj0MYZrQRly55DXIe","FnXNJBhxBqrUUwhvzdcOISzDMd",2690716,730,FALSE,"number_series_test_trial",14467,"NS_1","-2","3.0","-2",1
"2TBHnZOJUYj0MYZrQRly55DXIe","FnXNJBhxBqrUUwhvzdcOISzDMd",2698129,731,FALSE,"number_series_test_trial",7408,"NS_2","28","3.0","28",1
"2TBHnZOJUYj0MYZrQRly55DXIe","FnXNJBhxBqrUUwhvzdcOISzDMd",2718069,732,FALSE,"number_series_test_trial",19936,"NS_3","63","3.0","64",0
"2TBHnZOJUYj0MYZrQRly55DXIe","FnXNJBhxBqrUUwhvzdcOISzDMd",2733999,733,FALSE,"number_series_test_trial",15926,"NS_4","29","3.0","29",1
"2TBHnZOJUYj0MYZrQRly55DXIe","FnXNJBhxBqrUUwhvzdcOISzDMd",2760383,734,FALSE,"number_series_test_trial",26379,"NS_5","8/12","3.0","8/16",0
"2TBHnZOJUYj0MYZrQRly55DXIe","FnXNJBhxBqrUUwhvzdcOISzDMd",2786570,735,FALSE,"number_series_test_trial",26183,"NS_6","186","3.0","165",0
"2TBHnZOJUYj0MYZrQRly55DXIe","FnXNJBhxBqrUUwhvzdcOISzDMd",2811623,736,FALSE,"number_series_test_trial",25047,"NS_7","43","3.0","43",1
"2TBHnZOJUYj0MYZrQRly55DXIe","FnXNJBhxBqrUUwhvzdcOISzDMd",2822171,737,FALSE,"number_series_test_trial",10543,"NS_8","8000","3.0","8900",0
"2TBHnZOJUYj0MYZrQRly55DXIe","FnXNJBhxBqrUUwhvzdcOISzDMd",2846414,738,FALSE,"number_series_test_trial",24239,"NS_9","10/16","3.0","12/16",0
"4dlMkaMkKa009NZWAw1iqBcwPi","gYP0jhFCWEXP0ZjkDfhbGvpP8p",820447,605,FALSE,"number_series_test_trial",11189,"NS_1","2","2.0","-2",0
"4dlMkaMkKa009NZWAw1iqBcwPi","gYP0jhFCWEXP0ZjkDfhbGvpP8p",849921,606,FALSE,"number_series_test_trial",29468,"NS_2","26","2.0","28",0
"4dlMkaMkKa009NZWAw1iqBcwPi","gYP0jhFCWEXP0ZjkDfhbGvpP8p",864626,607,FALSE,"number_series_test_trial",14700,"NS_3","20","2.0","64",0
"4dlMkaMkKa009NZWAw1iqBcwPi","gYP0jhFCWEXP0ZjkDfhbGvpP8p",895637,608,TRUE,"number_series_test_trial",31003,"NS_4",NA,"2.0","29",NA
"4dlMkaMkKa009NZWAw1iqBcwPi","gYP0jhFCWEXP0ZjkDfhbGvpP8p",926642,609,TRUE,"number_series_test_trial",30991,"NS_5",NA,"2.0","8/16",NA
"4dlMkaMkKa009NZWAw1iqBcwPi","gYP0jhFCWEXP0ZjkDfhbGvpP8p",935676,610,FALSE,"number_series_test_trial",9023,"NS_6","109","2.0","165",0
"4dlMkaMkKa009NZWAw1iqBcwPi","gYP0jhFCWEXP0ZjkDfhbGvpP8p",943828,611,FALSE,"number_series_test_trial",8146,"NS_7","4","2.0","43",0
"4dlMkaMkKa009NZWAw1iqBcwPi","gYP0jhFCWEXP0ZjkDfhbGvpP8p",954874,612,FALSE,"number_series_test_trial",11041,"NS_8","8800","2.0","8900",0
"4dlMkaMkKa009NZWAw1iqBcwPi","gYP0jhFCWEXP0ZjkDfhbGvpP8p",967871,613,FALSE,"number_series_test_trial",12991,"NS_9","10/12","2.0","12/16",0
"HSoSwwbH35lqpoIXceM6dQWjth","gchtcxT3Y6Z9Elqc8S8pX46WEj",576431,47,FALSE,"number_series_test_trial",23423,"NS_1","2","3.0","-2",0
"HSoSwwbH35lqpoIXceM6dQWjth","gchtcxT3Y6Z9Elqc8S8pX46WEj",591717,48,FALSE,"number_series_test_trial",15283,"NS_2","28","3.0","28",1
"HSoSwwbH35lqpoIXceM6dQWjth","gchtcxT3Y6Z9Elqc8S8pX46WEj",622723,49,TRUE,"number_series_test_trial",31001,"NS_3","27","3.0","64",0
"HSoSwwbH35lqpoIXceM6dQWjth","gchtcxT3Y6Z9Elqc8S8pX46WEj",653725,50,TRUE,"number_series_test_trial",31000,"NS_4",NA,"3.0","29",NA
"HSoSwwbH35lqpoIXceM6dQWjth","gchtcxT3Y6Z9Elqc8S8pX46WEj",676687,51,FALSE,"number_series_test_trial",22958,"NS_5","10/1","3.0","8/16",0
"HSoSwwbH35lqpoIXceM6dQWjth","gchtcxT3Y6Z9Elqc8S8pX46WEj",692622,52,FALSE,"number_series_test_trial",15930,"NS_6","133","3.0","165",0
"HSoSwwbH35lqpoIXceM6dQWjth","gchtcxT3Y6Z9Elqc8S8pX46WEj",723625,53,TRUE,"number_series_test_trial",31000,"NS_7",NA,"3.0","43",NA
"HSoSwwbH35lqpoIXceM6dQWjth","gchtcxT3Y6Z9Elqc8S8pX46WEj",745324,54,FALSE,"number_series_test_trial",21696,"NS_8","8000","3.0","8900",0
"HSoSwwbH35lqpoIXceM6dQWjth","gchtcxT3Y6Z9Elqc8S8pX46WEj",772895,55,FALSE,"number_series_test_trial",27568,"NS_9","12/16","3.0","12/16",1
"3y3YlXMmKNewtENV4M3R0mpOWb","uhrq8s6KBRDC4bjbyKcKBvqCfj",38438,12,FALSE,"number_series_test_trial",6416,"NS_1","-2","2.0","-2",1
"3y3YlXMmKNewtENV4M3R0mpOWb","uhrq8s6KBRDC4bjbyKcKBvqCfj",45700,13,FALSE,"number_series_test_trial",7256,"NS_2","28","2.0","28",1
"3y3YlXMmKNewtENV4M3R0mpOWb","uhrq8s6KBRDC4bjbyKcKBvqCfj",52602,14,FALSE,"number_series_test_trial",6897,"NS_3","64","2.0","64",1
"3y3YlXMmKNewtENV4M3R0mpOWb","uhrq8s6KBRDC4bjbyKcKBvqCfj",67371,15,FALSE,"number_series_test_trial",14766,"NS_4","29","2.0","29",1
"3y3YlXMmKNewtENV4M3R0mpOWb","uhrq8s6KBRDC4bjbyKcKBvqCfj",89859,16,FALSE,"number_series_test_trial",22482,"NS_5","8/16","2.0","8/16",1
"3y3YlXMmKNewtENV4M3R0mpOWb","uhrq8s6KBRDC4bjbyKcKBvqCfj",120867,17,TRUE,"number_series_test_trial",31002,"NS_6",NA,"2.0","165",NA
"3y3YlXMmKNewtENV4M3R0mpOWb","uhrq8s6KBRDC4bjbyKcKBvqCfj",149322,18,FALSE,"number_series_test_trial",28451,"NS_7","41","2.0","43",0
"3y3YlXMmKNewtENV4M3R0mpOWb","uhrq8s6KBRDC4bjbyKcKBvqCfj",169724,19,FALSE,"number_series_test_trial",20398,"NS_8","8900","2.0","8900",1
"3y3YlXMmKNewtENV4M3R0mpOWb","uhrq8s6KBRDC4bjbyKcKBvqCfj",200577,20,FALSE,"number_series_test_trial",30848,"NS_9","9/15","2.0","12/16",0
"0cxe8fZLamHcc6kdd4QgXwISRo","xgRvBq6DowZ5suFssc0zjulHVw",507391,588,FALSE,"number_series_test_trial",25176,"NS_1","-2","2.0","-2",1
"0cxe8fZLamHcc6kdd4QgXwISRo","xgRvBq6DowZ5suFssc0zjulHVw",514780,589,FALSE,"number_series_test_trial",7385,"NS_2","28","2.0","28",1
"0cxe8fZLamHcc6kdd4QgXwISRo","xgRvBq6DowZ5suFssc0zjulHVw",529794,590,FALSE,"number_series_test_trial",15012,"NS_3","66","2.0","64",0
"0cxe8fZLamHcc6kdd4QgXwISRo","xgRvBq6DowZ5suFssc0zjulHVw",547634,591,FALSE,"number_series_test_trial",17837,"NS_4","30","2.0","29",0
"0cxe8fZLamHcc6kdd4QgXwISRo","xgRvBq6DowZ5suFssc0zjulHVw",566506,592,FALSE,"number_series_test_trial",18868,"NS_5","8/14","2.0","8/16",0
"0cxe8fZLamHcc6kdd4QgXwISRo","xgRvBq6DowZ5suFssc0zjulHVw",595623,593,FALSE,"number_series_test_trial",29113,"NS_6","150","2.0","165",0
"0cxe8fZLamHcc6kdd4QgXwISRo","xgRvBq6DowZ5suFssc0zjulHVw",626626,594,TRUE,"number_series_test_trial",31000,"NS_7",",10","2.0","43",0
"0cxe8fZLamHcc6kdd4QgXwISRo","xgRvBq6DowZ5suFssc0zjulHVw",640082,595,FALSE,"number_series_test_trial",13453,"NS_8","8950","2.0","8900",0
"0cxe8fZLamHcc6kdd4QgXwISRo","xgRvBq6DowZ5suFssc0zjulHVw",650565,596,FALSE,"number_series_test_trial",10480,"NS_9","12/18","2.0","12/16",0
"sbHdu8GGTMOpO46g343rinHq9e","Yuymk052ketbug7RWOBlrlxZCR",3952231,1289,FALSE,"number_series_test_trial",15279,"NS_1","-2","2.0","-2",1
"sbHdu8GGTMOpO46g343rinHq9e","Yuymk052ketbug7RWOBlrlxZCR",3963743,1290,FALSE,"number_series_test_trial",11506,"NS_2","28","2.0","28",1
"sbHdu8GGTMOpO46g343rinHq9e","Yuymk052ketbug7RWOBlrlxZCR",3978622,1291,FALSE,"number_series_test_trial",14874,"NS_3","60","2.0","64",0
"sbHdu8GGTMOpO46g343rinHq9e","Yuymk052ketbug7RWOBlrlxZCR",3993830,1292,FALSE,"number_series_test_trial",15204,"NS_4","29","2.0","29",1
"sbHdu8GGTMOpO46g343rinHq9e","Yuymk052ketbug7RWOBlrlxZCR",4012262,1293,FALSE,"number_series_test_trial",18426,"NS_5","10/16","2.0","8/16",0
"sbHdu8GGTMOpO46g343rinHq9e","Yuymk052ketbug7RWOBlrlxZCR",4027670,1294,FALSE,"number_series_test_trial",15404,"NS_6","120","2.0","165",0
"sbHdu8GGTMOpO46g343rinHq9e","Yuymk052ketbug7RWOBlrlxZCR",4053367,1295,FALSE,"number_series_test_trial",25691,"NS_7","40","2.0","43",0
"sbHdu8GGTMOpO46g343rinHq9e","Yuymk052ketbug7RWOBlrlxZCR",4067240,1296,FALSE,"number_series_test_trial",13868,"NS_8","8891","2.0","8900",0
"sbHdu8GGTMOpO46g343rinHq9e","Yuymk052ketbug7RWOBlrlxZCR",4083503,1297,FALSE,"number_series_test_trial",16258,"NS_9","10/16","2.0","12/16",0
"G5ZBpCO4zXZko6cqwrVDNbgyix","6c5pPqKHgHpEbMwUvUzX7S8n0P",2169627,684,FALSE,"number_series_test_trial",6689,"NS_1","0","3.0","-2",0
"G5ZBpCO4zXZko6cqwrVDNbgyix","6c5pPqKHgHpEbMwUvUzX7S8n0P",2177472,685,FALSE,"number_series_test_trial",7838,"NS_2","28","3.0","28",1
"G5ZBpCO4zXZko6cqwrVDNbgyix","6c5pPqKHgHpEbMwUvUzX7S8n0P",2200966,686,FALSE,"number_series_test_trial",23487,"NS_3","64","3.0","64",1
"G5ZBpCO4zXZko6cqwrVDNbgyix","6c5pPqKHgHpEbMwUvUzX7S8n0P",2211761,687,FALSE,"number_series_test_trial",10789,"NS_4","29","3.0","29",1
"G5ZBpCO4zXZko6cqwrVDNbgyix","6c5pPqKHgHpEbMwUvUzX7S8n0P",2236063,688,FALSE,"number_series_test_trial",24296,"NS_5","1/10","3.0","8/16",0
"G5ZBpCO4zXZko6cqwrVDNbgyix","6c5pPqKHgHpEbMwUvUzX7S8n0P",2262923,689,FALSE,"number_series_test_trial",26852,"NS_6","150","3.0","165",0
"G5ZBpCO4zXZko6cqwrVDNbgyix","6c5pPqKHgHpEbMwUvUzX7S8n0P",2273958,690,FALSE,"number_series_test_trial",11028,"NS_7","41","3.0","43",0
"G5ZBpCO4zXZko6cqwrVDNbgyix","6c5pPqKHgHpEbMwUvUzX7S8n0P",2291598,691,FALSE,"number_series_test_trial",17634,"NS_8","8900","3.0","8900",1
"G5ZBpCO4zXZko6cqwrVDNbgyix","6c5pPqKHgHpEbMwUvUzX7S8n0P",2322618,692,TRUE,"number_series_test_trial",31015,"NS_9","10/16","3.0","12/16",0
"7nlmw3BdK1kwluT1CwmeYU4H3t","3Ws72JzQDpeL7aca4aLpGJYW6U",3149630,184,TRUE,"number_series_test_trial",30999,"NS_1","-2","2.0","-2",1
"7nlmw3BdK1kwluT1CwmeYU4H3t","3Ws72JzQDpeL7aca4aLpGJYW6U",3175104,185,FALSE,"number_series_test_trial",25469,"NS_2","28","2.0","28",1
"7nlmw3BdK1kwluT1CwmeYU4H3t","3Ws72JzQDpeL7aca4aLpGJYW6U",3206108,186,TRUE,"number_series_test_trial",30999,"NS_3","6","2.0","64",0
"7nlmw3BdK1kwluT1CwmeYU4H3t","3Ws72JzQDpeL7aca4aLpGJYW6U",3237116,187,TRUE,"number_series_test_trial",31002,"NS_4",NA,"2.0","29",NA
"7nlmw3BdK1kwluT1CwmeYU4H3t","3Ws72JzQDpeL7aca4aLpGJYW6U",3268125,188,TRUE,"number_series_test_trial",31004,"NS_5","8/","2.0","8/16",0
"7nlmw3BdK1kwluT1CwmeYU4H3t","3Ws72JzQDpeL7aca4aLpGJYW6U",3299135,189,TRUE,"number_series_test_trial",31005,"NS_6",NA,"2.0","165",NA
"7nlmw3BdK1kwluT1CwmeYU4H3t","3Ws72JzQDpeL7aca4aLpGJYW6U",3330139,190,TRUE,"number_series_test_trial",30999,"NS_7","10","2.0","43",0
"7nlmw3BdK1kwluT1CwmeYU4H3t","3Ws72JzQDpeL7aca4aLpGJYW6U",3361142,191,TRUE,"number_series_test_trial",30999,"NS_8","8900","2.0","8900",1
"7nlmw3BdK1kwluT1CwmeYU4H3t","3Ws72JzQDpeL7aca4aLpGJYW6U",3392151,192,TRUE,"number_series_test_trial",31003,"NS_9","10/24","2.0","12/16",0
"NZN7BcYRtWqW3CM7xNuzZODHlk","gQB4z0c4GcKMyWCqoeT3OkDbY5",3241322,614,FALSE,"number_series_test_trial",26307,"NS_1","-2","3.0","-2",1
"NZN7BcYRtWqW3CM7xNuzZODHlk","gQB4z0c4GcKMyWCqoeT3OkDbY5",3266702,615,FALSE,"number_series_test_trial",25376,"NS_2","27","3.0","28",0
"NZN7BcYRtWqW3CM7xNuzZODHlk","gQB4z0c4GcKMyWCqoeT3OkDbY5",3297708,616,TRUE,"number_series_test_trial",31001,"NS_3",NA,"3.0","64",NA
"NZN7BcYRtWqW3CM7xNuzZODHlk","gQB4z0c4GcKMyWCqoeT3OkDbY5",3316554,617,FALSE,"number_series_test_trial",18838,"NS_4","29","3.0","29",1
"NZN7BcYRtWqW3CM7xNuzZODHlk","gQB4z0c4GcKMyWCqoeT3OkDbY5",3331651,618,FALSE,"number_series_test_trial",15091,"NS_5","6/7","3.0","8/16",0
"NZN7BcYRtWqW3CM7xNuzZODHlk","gQB4z0c4GcKMyWCqoeT3OkDbY5",3342787,619,FALSE,"number_series_test_trial",11131,"NS_6","161","3.0","165",0
"NZN7BcYRtWqW3CM7xNuzZODHlk","gQB4z0c4GcKMyWCqoeT3OkDbY5",3353303,620,FALSE,"number_series_test_trial",10514,"NS_7","5","3.0","43",0
"NZN7BcYRtWqW3CM7xNuzZODHlk","gQB4z0c4GcKMyWCqoeT3OkDbY5",3363427,621,FALSE,"number_series_test_trial",10122,"NS_8","8000","3.0","8900",0
"NZN7BcYRtWqW3CM7xNuzZODHlk","gQB4z0c4GcKMyWCqoeT3OkDbY5",3375654,622,FALSE,"number_series_test_trial",12223,"NS_9","10/20","3.0","12/16",0
"v0xHEZJAnH2hBk7KYt5bJ1pphi","VOAtYbTmZlnKDgOVm2PkI5RahV",1154750,658,FALSE,"number_series_test_trial",11986,"NS_1","-2","3.0","-2",1
"v0xHEZJAnH2hBk7KYt5bJ1pphi","VOAtYbTmZlnKDgOVm2PkI5RahV",1165884,659,FALSE,"number_series_test_trial",11124,"NS_2","28","3.0","28",1
"v0xHEZJAnH2hBk7KYt5bJ1pphi","VOAtYbTmZlnKDgOVm2PkI5RahV",1175855,660,FALSE,"number_series_test_trial",9946,"NS_3","55","3.0","64",0
"v0xHEZJAnH2hBk7KYt5bJ1pphi","VOAtYbTmZlnKDgOVm2PkI5RahV",1189345,661,FALSE,"number_series_test_trial",13472,"NS_4","30","3.0","29",0
"v0xHEZJAnH2hBk7KYt5bJ1pphi","VOAtYbTmZlnKDgOVm2PkI5RahV",1206313,662,FALSE,"number_series_test_trial",16949,"NS_5","4/1","3.0","8/16",0
"v0xHEZJAnH2hBk7KYt5bJ1pphi","VOAtYbTmZlnKDgOVm2PkI5RahV",1221271,663,FALSE,"number_series_test_trial",14937,"NS_6","160","3.0","165",0
"v0xHEZJAnH2hBk7KYt5bJ1pphi","VOAtYbTmZlnKDgOVm2PkI5RahV",1241138,664,FALSE,"number_series_test_trial",19850,"NS_7","33","3.0","43",0
"v0xHEZJAnH2hBk7KYt5bJ1pphi","VOAtYbTmZlnKDgOVm2PkI5RahV",1260739,665,FALSE,"number_series_test_trial",19588,"NS_8","8888","3.0","8900",0
"v0xHEZJAnH2hBk7KYt5bJ1pphi","VOAtYbTmZlnKDgOVm2PkI5RahV",1291440,666,FALSE,"number_series_test_trial",30681,"NS_9","9/12","3.0","12/16",0
"pdNlWr7CTQH6apW74umDCdw3QH","IGqVvD0WJFumEtCL7RxFVWXpCx",390022,78,FALSE,"number_series_test_trial",11011,"NS_1","-2","3.0","-2",1
"pdNlWr7CTQH6apW74umDCdw3QH","IGqVvD0WJFumEtCL7RxFVWXpCx",398096,79,FALSE,"number_series_test_trial",8073,"NS_2","28","3.0","28",1
"pdNlWr7CTQH6apW74umDCdw3QH","IGqVvD0WJFumEtCL7RxFVWXpCx",417727,80,FALSE,"number_series_test_trial",19629,"NS_3","64","3.0","64",1
"pdNlWr7CTQH6apW74umDCdw3QH","IGqVvD0WJFumEtCL7RxFVWXpCx",443592,81,FALSE,"number_series_test_trial",25863,"NS_4","29","3.0","29",1
"pdNlWr7CTQH6apW74umDCdw3QH","IGqVvD0WJFumEtCL7RxFVWXpCx",474597,82,TRUE,"number_series_test_trial",30999,"NS_5","10/16","3.0","8/16",0
"pdNlWr7CTQH6apW74umDCdw3QH","IGqVvD0WJFumEtCL7RxFVWXpCx",499515,83,FALSE,"number_series_test_trial",24913,"NS_6","139","3.0","165",0
"pdNlWr7CTQH6apW74umDCdw3QH","IGqVvD0WJFumEtCL7RxFVWXpCx",530520,84,TRUE,"number_series_test_trial",31001,"NS_7","37","3.0","43",0
"pdNlWr7CTQH6apW74umDCdw3QH","IGqVvD0WJFumEtCL7RxFVWXpCx",561522,85,TRUE,"number_series_test_trial",30997,"NS_8","8990","3.0","8900",0
"pdNlWr7CTQH6apW74umDCdw3QH","IGqVvD0WJFumEtCL7RxFVWXpCx",592526,86,TRUE,"number_series_test_trial",31001,"NS_9","9/","3.0","12/16",0
"1qqyj3uwoGDwVUhFSx8uq9XZ2k","qTJTU6gD2FrZilbvUUlYY1MzBZ",1595462,86,FALSE,"number_series_test_trial",14706,"NS_1","-2","2.0","-2",1
"1qqyj3uwoGDwVUhFSx8uq9XZ2k","qTJTU6gD2FrZilbvUUlYY1MzBZ",1605407,87,FALSE,"number_series_test_trial",9939,"NS_2","28","2.0","28",1
"1qqyj3uwoGDwVUhFSx8uq9XZ2k","qTJTU6gD2FrZilbvUUlYY1MzBZ",1629140,88,FALSE,"number_series_test_trial",23730,"NS_3","64","2.0","64",1
"1qqyj3uwoGDwVUhFSx8uq9XZ2k","qTJTU6gD2FrZilbvUUlYY1MzBZ",1651085,89,FALSE,"number_series_test_trial",21942,"NS_4","29","2.0","29",1
"1qqyj3uwoGDwVUhFSx8uq9XZ2k","qTJTU6gD2FrZilbvUUlYY1MzBZ",1682105,90,TRUE,"number_series_test_trial",31016,"NS_5",NA,"2.0","8/16",NA
"1qqyj3uwoGDwVUhFSx8uq9XZ2k","qTJTU6gD2FrZilbvUUlYY1MzBZ",1709563,91,FALSE,"number_series_test_trial",27448,"NS_6","150","2.0","165",0
"1qqyj3uwoGDwVUhFSx8uq9XZ2k","qTJTU6gD2FrZilbvUUlYY1MzBZ",1733640,92,FALSE,"number_series_test_trial",24051,"NS_7","43","2.0","43",1
"1qqyj3uwoGDwVUhFSx8uq9XZ2k","qTJTU6gD2FrZilbvUUlYY1MzBZ",1751609,93,FALSE,"number_series_test_trial",17966,"NS_8","8900","2.0","8900",1
"1qqyj3uwoGDwVUhFSx8uq9XZ2k","qTJTU6gD2FrZilbvUUlYY1MzBZ",1782624,94,TRUE,"number_series_test_trial",31010,"NS_9",NA,"2.0","12/16",NA
"bdQFUzfoOeMyBEsjMxPAOHZnTY","XF0V7cturAS9F8mNdu3yzhN2oM",4269855,1315,FALSE,"number_series_test_trial",6037,"NS_1","-2","2.0","-2",1
"bdQFUzfoOeMyBEsjMxPAOHZnTY","XF0V7cturAS9F8mNdu3yzhN2oM",4278278,1316,FALSE,"number_series_test_trial",8416,"NS_2","27","2.0","28",0
"bdQFUzfoOeMyBEsjMxPAOHZnTY","XF0V7cturAS9F8mNdu3yzhN2oM",4284066,1317,FALSE,"number_series_test_trial",5782,"NS_3","64","2.0","64",1
"bdQFUzfoOeMyBEsjMxPAOHZnTY","XF0V7cturAS9F8mNdu3yzhN2oM",4301976,1318,FALSE,"number_series_test_trial",17903,"NS_4","29","2.0","29",1
"bdQFUzfoOeMyBEsjMxPAOHZnTY","XF0V7cturAS9F8mNdu3yzhN2oM",4326246,1319,FALSE,"number_series_test_trial",24264,"NS_5","8/16","2.0","8/16",1
"bdQFUzfoOeMyBEsjMxPAOHZnTY","XF0V7cturAS9F8mNdu3yzhN2oM",4343430,1320,FALSE,"number_series_test_trial",17178,"NS_6","108","2.0","165",0
"bdQFUzfoOeMyBEsjMxPAOHZnTY","XF0V7cturAS9F8mNdu3yzhN2oM",4367857,1321,FALSE,"number_series_test_trial",24421,"NS_7","43","2.0","43",1
"bdQFUzfoOeMyBEsjMxPAOHZnTY","XF0V7cturAS9F8mNdu3yzhN2oM",4379269,1322,FALSE,"number_series_test_trial",11405,"NS_8","8900","2.0","8900",1
"bdQFUzfoOeMyBEsjMxPAOHZnTY","XF0V7cturAS9F8mNdu3yzhN2oM",4398615,1323,FALSE,"number_series_test_trial",19340,"NS_9","12/16","2.0","12/16",1
"gtPUi7sqEEoHOD7DLj5gzQtsgx","YFRGdzpKbz8pHYylmbZj99Wl6Y",5127754,1301,FALSE,"number_series_test_trial",17992,"NS_1","-2","2.0","-2",1
"gtPUi7sqEEoHOD7DLj5gzQtsgx","YFRGdzpKbz8pHYylmbZj99Wl6Y",5142581,1302,FALSE,"number_series_test_trial",14825,"NS_2","28","2.0","28",1
"gtPUi7sqEEoHOD7DLj5gzQtsgx","YFRGdzpKbz8pHYylmbZj99Wl6Y",5169549,1303,FALSE,"number_series_test_trial",26967,"NS_3","62","2.0","64",0
"gtPUi7sqEEoHOD7DLj5gzQtsgx","YFRGdzpKbz8pHYylmbZj99Wl6Y",5183946,1304,FALSE,"number_series_test_trial",14396,"NS_4","29","2.0","29",1
"gtPUi7sqEEoHOD7DLj5gzQtsgx","YFRGdzpKbz8pHYylmbZj99Wl6Y",5214956,1305,TRUE,"number_series_test_trial",31008,"NS_5","8/","2.0","8/16",0
"gtPUi7sqEEoHOD7DLj5gzQtsgx","YFRGdzpKbz8pHYylmbZj99Wl6Y",5226564,1306,FALSE,"number_series_test_trial",11606,"NS_6","166","2.0","165",0
"gtPUi7sqEEoHOD7DLj5gzQtsgx","YFRGdzpKbz8pHYylmbZj99Wl6Y",5257574,1307,TRUE,"number_series_test_trial",31009,"NS_7",NA,"2.0","43",NA
"gtPUi7sqEEoHOD7DLj5gzQtsgx","YFRGdzpKbz8pHYylmbZj99Wl6Y",5285780,1308,FALSE,"number_series_test_trial",28205,"NS_8","8900","2.0","8900",1
"gtPUi7sqEEoHOD7DLj5gzQtsgx","YFRGdzpKbz8pHYylmbZj99Wl6Y",5307659,1309,FALSE,"number_series_test_trial",21878,"NS_9","10/14","2.0","12/16",0
"PCJOjPEaFjLMSe7X9TUJRlYxCO","Q4c3Ro9t0pH3N52IFYg4rAlJy3",4894122,1295,FALSE,"number_series_test_trial",11952,"NS_1","-2","2.0","-2",1
"PCJOjPEaFjLMSe7X9TUJRlYxCO","Q4c3Ro9t0pH3N52IFYg4rAlJy3",4900386,1296,FALSE,"number_series_test_trial",6261,"NS_2","28","2.0","28",1
"PCJOjPEaFjLMSe7X9TUJRlYxCO","Q4c3Ro9t0pH3N52IFYg4rAlJy3",4905710,1297,FALSE,"number_series_test_trial",5322,"NS_3","64","2.0","64",1
"PCJOjPEaFjLMSe7X9TUJRlYxCO","Q4c3Ro9t0pH3N52IFYg4rAlJy3",4918046,1298,FALSE,"number_series_test_trial",12334,"NS_4","29","2.0","29",1
"PCJOjPEaFjLMSe7X9TUJRlYxCO","Q4c3Ro9t0pH3N52IFYg4rAlJy3",4934598,1299,FALSE,"number_series_test_trial",16550,"NS_5","8/16","2.0","8/16",1
"PCJOjPEaFjLMSe7X9TUJRlYxCO","Q4c3Ro9t0pH3N52IFYg4rAlJy3",4965602,1300,TRUE,"number_series_test_trial",31002,"NS_6",NA,"2.0","165",NA
"PCJOjPEaFjLMSe7X9TUJRlYxCO","Q4c3Ro9t0pH3N52IFYg4rAlJy3",4978023,1301,FALSE,"number_series_test_trial",12416,"NS_7","43","2.0","43",1
"PCJOjPEaFjLMSe7X9TUJRlYxCO","Q4c3Ro9t0pH3N52IFYg4rAlJy3",4993634,1302,FALSE,"number_series_test_trial",15610,"NS_8","8900","2.0","8900",1
"PCJOjPEaFjLMSe7X9TUJRlYxCO","Q4c3Ro9t0pH3N52IFYg4rAlJy3",5014458,1303,FALSE,"number_series_test_trial",20822,"NS_9","12/16","2.0","12/16",1
"IeeHxA8B20Qf7dqBptd23gQsws","BbavLZZuyTjAlJ3irPLXLzxY2S",2435657,901,FALSE,"number_series_test_trial",12101,"NS_1","-2","3.0","-2",1
"IeeHxA8B20Qf7dqBptd23gQsws","BbavLZZuyTjAlJ3irPLXLzxY2S",2445701,902,FALSE,"number_series_test_trial",10042,"NS_2","28","3.0","28",1
"IeeHxA8B20Qf7dqBptd23gQsws","BbavLZZuyTjAlJ3irPLXLzxY2S",2454530,903,FALSE,"number_series_test_trial",8827,"NS_3","64","3.0","64",1
"IeeHxA8B20Qf7dqBptd23gQsws","BbavLZZuyTjAlJ3irPLXLzxY2S",2472025,904,FALSE,"number_series_test_trial",17494,"NS_4","29","3.0","29",1
"IeeHxA8B20Qf7dqBptd23gQsws","BbavLZZuyTjAlJ3irPLXLzxY2S",2495162,905,FALSE,"number_series_test_trial",23136,"NS_5","8/16","3.0","8/16",1
"IeeHxA8B20Qf7dqBptd23gQsws","BbavLZZuyTjAlJ3irPLXLzxY2S",2518221,906,FALSE,"number_series_test_trial",23057,"NS_6","160","3.0","165",0
"IeeHxA8B20Qf7dqBptd23gQsws","BbavLZZuyTjAlJ3irPLXLzxY2S",2538322,907,FALSE,"number_series_test_trial",20100,"NS_7","40","3.0","43",0
"IeeHxA8B20Qf7dqBptd23gQsws","BbavLZZuyTjAlJ3irPLXLzxY2S",2552805,908,FALSE,"number_series_test_trial",14481,"NS_8","8900","3.0","8900",1
"IeeHxA8B20Qf7dqBptd23gQsws","BbavLZZuyTjAlJ3irPLXLzxY2S",2576808,909,FALSE,"number_series_test_trial",24001,"NS_9","12/16","3.0","12/16",1
"G0APNAVl50xWcSR7tOqyClaPyf","tDIJczWs5A7dVr8ZfcMvamgv8R",4666067,1219,FALSE,"number_series_test_trial",15276,"NS_1","-2","3.0","-2",1
"G0APNAVl50xWcSR7tOqyClaPyf","tDIJczWs5A7dVr8ZfcMvamgv8R",4675061,1220,FALSE,"number_series_test_trial",8989,"NS_2","28","3.0","28",1
"G0APNAVl50xWcSR7tOqyClaPyf","tDIJczWs5A7dVr8ZfcMvamgv8R",4681539,1221,FALSE,"number_series_test_trial",6469,"NS_3","64","3.0","64",1
"G0APNAVl50xWcSR7tOqyClaPyf","tDIJczWs5A7dVr8ZfcMvamgv8R",4703299,1222,FALSE,"number_series_test_trial",21756,"NS_4","29","3.0","29",1
"G0APNAVl50xWcSR7tOqyClaPyf","tDIJczWs5A7dVr8ZfcMvamgv8R",4734306,1223,TRUE,"number_series_test_trial",31003,"NS_5","8/","3.0","8/16",0
"G0APNAVl50xWcSR7tOqyClaPyf","tDIJczWs5A7dVr8ZfcMvamgv8R",4765310,1224,TRUE,"number_series_test_trial",30998,"NS_6","168","3.0","165",0
"G0APNAVl50xWcSR7tOqyClaPyf","tDIJczWs5A7dVr8ZfcMvamgv8R",4785533,1225,FALSE,"number_series_test_trial",20217,"NS_7","43","3.0","43",1
"G0APNAVl50xWcSR7tOqyClaPyf","tDIJczWs5A7dVr8ZfcMvamgv8R",4808277,1226,FALSE,"number_series_test_trial",22734,"NS_8","8900","3.0","8900",1
"G0APNAVl50xWcSR7tOqyClaPyf","tDIJczWs5A7dVr8ZfcMvamgv8R",4839282,1227,TRUE,"number_series_test_trial",30993,"NS_9","1","3.0","12/16",0
"9BIZx07jE4Ef90AedDSlXVBssn","OaXvKNf7npnHMWemsmQPyaw6RU",4595385,1228,FALSE,"number_series_test_trial",28201,"NS_1","-2","2.0","-2",1
"9BIZx07jE4Ef90AedDSlXVBssn","OaXvKNf7npnHMWemsmQPyaw6RU",4608702,1229,FALSE,"number_series_test_trial",13315,"NS_2","28","2.0","28",1
"9BIZx07jE4Ef90AedDSlXVBssn","OaXvKNf7npnHMWemsmQPyaw6RU",4620450,1230,FALSE,"number_series_test_trial",11746,"NS_3","60","2.0","64",0
"9BIZx07jE4Ef90AedDSlXVBssn","OaXvKNf7npnHMWemsmQPyaw6RU",4642452,1231,FALSE,"number_series_test_trial",21999,"NS_4","31","2.0","29",0
"9BIZx07jE4Ef90AedDSlXVBssn","OaXvKNf7npnHMWemsmQPyaw6RU",4673456,1232,TRUE,"number_series_test_trial",31001,"NS_5","8/","2.0","8/16",0
"9BIZx07jE4Ef90AedDSlXVBssn","OaXvKNf7npnHMWemsmQPyaw6RU",4702298,1233,FALSE,"number_series_test_trial",28840,"NS_6","181","2.0","165",0
"9BIZx07jE4Ef90AedDSlXVBssn","OaXvKNf7npnHMWemsmQPyaw6RU",4733300,1234,TRUE,"number_series_test_trial",31000,"NS_7",NA,"2.0","43",NA
"9BIZx07jE4Ef90AedDSlXVBssn","OaXvKNf7npnHMWemsmQPyaw6RU",4755798,1235,FALSE,"number_series_test_trial",22495,"NS_8","8010","2.0","8900",0
"9BIZx07jE4Ef90AedDSlXVBssn","OaXvKNf7npnHMWemsmQPyaw6RU",4786800,1236,TRUE,"number_series_test_trial",31000,"NS_9",NA,"2.0","12/16",NA
"61lVwkrbPKX7s3Sky5R1eGbANB","CAau7OdzNgY276xYwj2HwQjYnx",759270,150,FALSE,"number_series_test_trial",26622,"NS_1","0","3.0","-2",0
"61lVwkrbPKX7s3Sky5R1eGbANB","CAau7OdzNgY276xYwj2HwQjYnx",781801,151,FALSE,"number_series_test_trial",22529,"NS_2","28","3.0","28",1
"61lVwkrbPKX7s3Sky5R1eGbANB","CAau7OdzNgY276xYwj2HwQjYnx",810250,152,FALSE,"number_series_test_trial",28447,"NS_3","63","3.0","64",0
"61lVwkrbPKX7s3Sky5R1eGbANB","CAau7OdzNgY276xYwj2HwQjYnx",838284,153,FALSE,"number_series_test_trial",28033,"NS_4","29","3.0","29",1
"61lVwkrbPKX7s3Sky5R1eGbANB","CAau7OdzNgY276xYwj2HwQjYnx",869286,154,TRUE,"number_series_test_trial",31001,"NS_5",NA,"3.0","8/16",NA
"61lVwkrbPKX7s3Sky5R1eGbANB","CAau7OdzNgY276xYwj2HwQjYnx",893682,155,FALSE,"number_series_test_trial",24394,"NS_6","187","3.0","165",0
"61lVwkrbPKX7s3Sky5R1eGbANB","CAau7OdzNgY276xYwj2HwQjYnx",924684,156,TRUE,"number_series_test_trial",31000,"NS_7",NA,"3.0","43",NA
"61lVwkrbPKX7s3Sky5R1eGbANB","CAau7OdzNgY276xYwj2HwQjYnx",943833,157,FALSE,"number_series_test_trial",19148,"NS_8","8900","3.0","8900",1
"61lVwkrbPKX7s3Sky5R1eGbANB","CAau7OdzNgY276xYwj2HwQjYnx",969257,158,FALSE,"number_series_test_trial",25423,"NS_9","10/18","3.0","12/16",0
"b9CoBZdE1dRpzYftOrE2yXFZxW","M0Dqk0rDjDcoYlYJ3Kw1lmOkiK",3292458,314,FALSE,"number_series_test_trial",8112,"NS_1","-2","3.0","-2",1
"b9CoBZdE1dRpzYftOrE2yXFZxW","M0Dqk0rDjDcoYlYJ3Kw1lmOkiK",3299856,315,FALSE,"number_series_test_trial",7392,"NS_2","28","3.0","28",1
"b9CoBZdE1dRpzYftOrE2yXFZxW","M0Dqk0rDjDcoYlYJ3Kw1lmOkiK",3306926,316,FALSE,"number_series_test_trial",7063,"NS_3","64","3.0","64",1
"b9CoBZdE1dRpzYftOrE2yXFZxW","M0Dqk0rDjDcoYlYJ3Kw1lmOkiK",3323337,317,FALSE,"number_series_test_trial",16404,"NS_4","29","3.0","29",1
"b9CoBZdE1dRpzYftOrE2yXFZxW","M0Dqk0rDjDcoYlYJ3Kw1lmOkiK",3346059,318,FALSE,"number_series_test_trial",22713,"NS_5","8/16","3.0","8/16",1
"b9CoBZdE1dRpzYftOrE2yXFZxW","M0Dqk0rDjDcoYlYJ3Kw1lmOkiK",3377073,319,TRUE,"number_series_test_trial",31006,"NS_6",NA,"3.0","165",NA
"b9CoBZdE1dRpzYftOrE2yXFZxW","M0Dqk0rDjDcoYlYJ3Kw1lmOkiK",3396909,320,FALSE,"number_series_test_trial",19829,"NS_7","43","3.0","43",1
"b9CoBZdE1dRpzYftOrE2yXFZxW","M0Dqk0rDjDcoYlYJ3Kw1lmOkiK",3413468,321,FALSE,"number_series_test_trial",16552,"NS_8","8900","3.0","8900",1
"b9CoBZdE1dRpzYftOrE2yXFZxW","M0Dqk0rDjDcoYlYJ3Kw1lmOkiK",3444484,322,TRUE,"number_series_test_trial",31008,"NS_9","12/16","3.0","12/16",1
"fKyu5qyHKrGbQNZ5V22Ujidtu2","hiJoHzKLYjGY0JOiARP5m6lbVg",5295202,1165,TRUE,"number_series_test_trial",31010,"NS_1",NA,"2.0","-2",NA
"fKyu5qyHKrGbQNZ5V22Ujidtu2","hiJoHzKLYjGY0JOiARP5m6lbVg",5596889,1166,FALSE,"number_series_test_trial",301685,"NS_2","28","2.0","28",1
"fKyu5qyHKrGbQNZ5V22Ujidtu2","hiJoHzKLYjGY0JOiARP5m6lbVg",5618883,1167,FALSE,"number_series_test_trial",21869,"NS_3","66","2.0","64",0
"fKyu5qyHKrGbQNZ5V22Ujidtu2","hiJoHzKLYjGY0JOiARP5m6lbVg",5638278,1168,FALSE,"number_series_test_trial",19385,"NS_4","29","2.0","29",1
"fKyu5qyHKrGbQNZ5V22Ujidtu2","hiJoHzKLYjGY0JOiARP5m6lbVg",5669297,1169,TRUE,"number_series_test_trial",31012,"NS_5","8/","2.0","8/16",0
"fKyu5qyHKrGbQNZ5V22Ujidtu2","hiJoHzKLYjGY0JOiARP5m6lbVg",5700318,1170,TRUE,"number_series_test_trial",31013,"NS_6",NA,"2.0","165",NA
"fKyu5qyHKrGbQNZ5V22Ujidtu2","hiJoHzKLYjGY0JOiARP5m6lbVg",5731334,1171,TRUE,"number_series_test_trial",31009,"NS_7",NA,"2.0","43",NA
"fKyu5qyHKrGbQNZ5V22Ujidtu2","hiJoHzKLYjGY0JOiARP5m6lbVg",5753755,1172,FALSE,"number_series_test_trial",22413,"NS_8","8900","2.0","8900",1
"fKyu5qyHKrGbQNZ5V22Ujidtu2","hiJoHzKLYjGY0JOiARP5m6lbVg",5782573,1173,FALSE,"number_series_test_trial",28814,"NS_9","12/16","2.0","12/16",1
"kjTfRJQho7ynOHWmgLuFGqcZAa","IOpQPKeWfLgMXsQrfjwfYZ5tc6",4943019,1282,FALSE,"number_series_test_trial",17715,"NS_1","-2","2.0","-2",1
"kjTfRJQho7ynOHWmgLuFGqcZAa","IOpQPKeWfLgMXsQrfjwfYZ5tc6",4963859,1283,FALSE,"number_series_test_trial",20836,"NS_2","28","2.0","28",1
"kjTfRJQho7ynOHWmgLuFGqcZAa","IOpQPKeWfLgMXsQrfjwfYZ5tc6",4990044,1284,FALSE,"number_series_test_trial",26180,"NS_3","67","2.0","64",0
"kjTfRJQho7ynOHWmgLuFGqcZAa","IOpQPKeWfLgMXsQrfjwfYZ5tc6",5007884,1285,FALSE,"number_series_test_trial",17834,"NS_4","29","2.0","29",1
"kjTfRJQho7ynOHWmgLuFGqcZAa","IOpQPKeWfLgMXsQrfjwfYZ5tc6",5038898,1286,TRUE,"number_series_test_trial",31010,"NS_5",NA,"2.0","8/16",NA
"kjTfRJQho7ynOHWmgLuFGqcZAa","IOpQPKeWfLgMXsQrfjwfYZ5tc6",5069903,1287,TRUE,"number_series_test_trial",30999,"NS_6",NA,"2.0","165",NA
"kjTfRJQho7ynOHWmgLuFGqcZAa","IOpQPKeWfLgMXsQrfjwfYZ5tc6",5100907,1288,TRUE,"number_series_test_trial",30999,"NS_7",NA,"2.0","43",NA
"kjTfRJQho7ynOHWmgLuFGqcZAa","IOpQPKeWfLgMXsQrfjwfYZ5tc6",5131912,1289,TRUE,"number_series_test_trial",31000,"NS_8",NA,"2.0","8900",NA
"kjTfRJQho7ynOHWmgLuFGqcZAa","IOpQPKeWfLgMXsQrfjwfYZ5tc6",5162916,1290,TRUE,"number_series_test_trial",31000,"NS_9",NA,"2.0","12/16",NA
"HzkqNoBV9xN7djmp8KYHcQGVQT","1Sp5zDi3qg4ZGnrcSqpE2aNB9b",6078599,1203,FALSE,"number_series_test_trial",11099,"NS_1","-2","3.0","-2",1
"HzkqNoBV9xN7djmp8KYHcQGVQT","1Sp5zDi3qg4ZGnrcSqpE2aNB9b",6085277,1204,FALSE,"number_series_test_trial",6673,"NS_2","28","3.0","28",1
"HzkqNoBV9xN7djmp8KYHcQGVQT","1Sp5zDi3qg4ZGnrcSqpE2aNB9b",6094887,1205,FALSE,"number_series_test_trial",9604,"NS_3","64","3.0","64",1
"HzkqNoBV9xN7djmp8KYHcQGVQT","1Sp5zDi3qg4ZGnrcSqpE2aNB9b",6109962,1206,FALSE,"number_series_test_trial",15070,"NS_4","29","3.0","29",1
"HzkqNoBV9xN7djmp8KYHcQGVQT","1Sp5zDi3qg4ZGnrcSqpE2aNB9b",6135718,1207,FALSE,"number_series_test_trial",25753,"NS_5","8/16","3.0","8/16",1
"HzkqNoBV9xN7djmp8KYHcQGVQT","1Sp5zDi3qg4ZGnrcSqpE2aNB9b",6166723,1208,TRUE,"number_series_test_trial",31001,"NS_6",NA,"3.0","165",NA
"HzkqNoBV9xN7djmp8KYHcQGVQT","1Sp5zDi3qg4ZGnrcSqpE2aNB9b",6197726,1209,TRUE,"number_series_test_trial",31000,"NS_7",NA,"3.0","43",NA
"HzkqNoBV9xN7djmp8KYHcQGVQT","1Sp5zDi3qg4ZGnrcSqpE2aNB9b",6199841,1210,FALSE,"number_series_test_trial",2111,"NS_8","43","3.0","8900",0
"HzkqNoBV9xN7djmp8KYHcQGVQT","1Sp5zDi3qg4ZGnrcSqpE2aNB9b",6230844,1211,TRUE,"number_series_test_trial",30998,"NS_9",NA,"3.0","12/16",NA
"FVXXyUR8N57I32gsI0a7uQIcQ7","Qo95KXpFeDgJOX6oz5QnQ5Xf35",603797,49,FALSE,"number_series_test_trial",6562,"NS_1","-2","2.0","-2",1
"FVXXyUR8N57I32gsI0a7uQIcQ7","Qo95KXpFeDgJOX6oz5QnQ5Xf35",609726,50,FALSE,"number_series_test_trial",5923,"NS_2","28","2.0","28",1
"FVXXyUR8N57I32gsI0a7uQIcQ7","Qo95KXpFeDgJOX6oz5QnQ5Xf35",618242,51,FALSE,"number_series_test_trial",8512,"NS_3","64","2.0","64",1
"FVXXyUR8N57I32gsI0a7uQIcQ7","Qo95KXpFeDgJOX6oz5QnQ5Xf35",645906,52,FALSE,"number_series_test_trial",27661,"NS_4","32","2.0","29",0
"FVXXyUR8N57I32gsI0a7uQIcQ7","Qo95KXpFeDgJOX6oz5QnQ5Xf35",665898,53,FALSE,"number_series_test_trial",19990,"NS_5","8/16","2.0","8/16",1
"FVXXyUR8N57I32gsI0a7uQIcQ7","Qo95KXpFeDgJOX6oz5QnQ5Xf35",686227,54,FALSE,"number_series_test_trial",20323,"NS_6","120","2.0","165",0
"FVXXyUR8N57I32gsI0a7uQIcQ7","Qo95KXpFeDgJOX6oz5QnQ5Xf35",717244,55,TRUE,"number_series_test_trial",31014,"NS_7",NA,"2.0","43",NA
"FVXXyUR8N57I32gsI0a7uQIcQ7","Qo95KXpFeDgJOX6oz5QnQ5Xf35",742792,56,FALSE,"number_series_test_trial",25544,"NS_8","8998","2.0","8900",0
"FVXXyUR8N57I32gsI0a7uQIcQ7","Qo95KXpFeDgJOX6oz5QnQ5Xf35",773808,57,TRUE,"number_series_test_trial",31013,"NS_9","10/14","2.0","12/16",0
"FuMnwfdgQxu7LrKtZgvslbjX9q","FsRAkyh2QmFxSKLGPJQSEf5Fkw",1664234,538,FALSE,"number_series_test_trial",12230,"NS_1","-2","3.0","-2",1
"FuMnwfdgQxu7LrKtZgvslbjX9q","FsRAkyh2QmFxSKLGPJQSEf5Fkw",1672877,539,FALSE,"number_series_test_trial",8641,"NS_2","28","3.0","28",1
"FuMnwfdgQxu7LrKtZgvslbjX9q","FsRAkyh2QmFxSKLGPJQSEf5Fkw",1688671,540,FALSE,"number_series_test_trial",15793,"NS_3","63","3.0","64",0
"FuMnwfdgQxu7LrKtZgvslbjX9q","FsRAkyh2QmFxSKLGPJQSEf5Fkw",1697759,541,FALSE,"number_series_test_trial",9087,"NS_4","27","3.0","29",0
"FuMnwfdgQxu7LrKtZgvslbjX9q","FsRAkyh2QmFxSKLGPJQSEf5Fkw",1728762,542,TRUE,"number_series_test_trial",31001,"NS_5","8/","3.0","8/16",0
"FuMnwfdgQxu7LrKtZgvslbjX9q","FsRAkyh2QmFxSKLGPJQSEf5Fkw",1742991,543,FALSE,"number_series_test_trial",14228,"NS_6","166","3.0","165",0
"FuMnwfdgQxu7LrKtZgvslbjX9q","FsRAkyh2QmFxSKLGPJQSEf5Fkw",1773994,544,TRUE,"number_series_test_trial",31001,"NS_7","46","3.0","43",0
"FuMnwfdgQxu7LrKtZgvslbjX9q","FsRAkyh2QmFxSKLGPJQSEf5Fkw",1790935,545,FALSE,"number_series_test_trial",16939,"NS_8","8000","3.0","8900",0
"FuMnwfdgQxu7LrKtZgvslbjX9q","FsRAkyh2QmFxSKLGPJQSEf5Fkw",1814712,546,FALSE,"number_series_test_trial",23776,"NS_9","9/12","3.0","12/16",0
"M3QkqwsGG89cfZHwg8LJX8Bq8F","MGKIYt4eIYkJpObmAND5CF3F2P",1618692,193,FALSE,"number_series_test_trial",14000,"NS_1","-2","2.0","-2",1
"M3QkqwsGG89cfZHwg8LJX8Bq8F","MGKIYt4eIYkJpObmAND5CF3F2P",1626300,194,FALSE,"number_series_test_trial",7599,"NS_2","28","2.0","28",1
"M3QkqwsGG89cfZHwg8LJX8Bq8F","MGKIYt4eIYkJpObmAND5CF3F2P",1634555,195,FALSE,"number_series_test_trial",8249,"NS_3","64","2.0","64",1
"M3QkqwsGG89cfZHwg8LJX8Bq8F","MGKIYt4eIYkJpObmAND5CF3F2P",1653635,196,FALSE,"number_series_test_trial",19074,"NS_4","29","2.0","29",1
"M3QkqwsGG89cfZHwg8LJX8Bq8F","MGKIYt4eIYkJpObmAND5CF3F2P",1684661,197,TRUE,"number_series_test_trial",31010,"NS_5","8","2.0","8/16",0
"M3QkqwsGG89cfZHwg8LJX8Bq8F","MGKIYt4eIYkJpObmAND5CF3F2P",1715673,198,TRUE,"number_series_test_trial",30993,"NS_6","140","2.0","165",0
"M3QkqwsGG89cfZHwg8LJX8Bq8F","MGKIYt4eIYkJpObmAND5CF3F2P",1746693,199,TRUE,"number_series_test_trial",30995,"NS_7","43","2.0","43",1
"M3QkqwsGG89cfZHwg8LJX8Bq8F","MGKIYt4eIYkJpObmAND5CF3F2P",1768286,200,FALSE,"number_series_test_trial",21579,"NS_8","8900","2.0","8900",1
"M3QkqwsGG89cfZHwg8LJX8Bq8F","MGKIYt4eIYkJpObmAND5CF3F2P",1792014,201,FALSE,"number_series_test_trial",23722,"NS_9","10/24","2.0","12/16",0
"oeHqGz00MABds0ueuvAhHv2B7f","WElEQnWexhxe01Pcg5uStXZHpg",121580235,1312,FALSE,"number_series_test_trial",7590,"NS_1","-2","2.0","-2",1
"oeHqGz00MABds0ueuvAhHv2B7f","WElEQnWexhxe01Pcg5uStXZHpg",121586769,1313,FALSE,"number_series_test_trial",6530,"NS_2","28","2.0","28",1
"oeHqGz00MABds0ueuvAhHv2B7f","WElEQnWexhxe01Pcg5uStXZHpg",121597765,1314,FALSE,"number_series_test_trial",10993,"NS_3","64","2.0","64",1
"oeHqGz00MABds0ueuvAhHv2B7f","WElEQnWexhxe01Pcg5uStXZHpg",121604978,1315,FALSE,"number_series_test_trial",7209,"NS_4","29","2.0","29",1
"oeHqGz00MABds0ueuvAhHv2B7f","WElEQnWexhxe01Pcg5uStXZHpg",121622921,1316,FALSE,"number_series_test_trial",17941,"NS_5","8/16","2.0","8/16",1
"oeHqGz00MABds0ueuvAhHv2B7f","WElEQnWexhxe01Pcg5uStXZHpg",121636374,1317,FALSE,"number_series_test_trial",13448,"NS_6","120","2.0","165",0
"oeHqGz00MABds0ueuvAhHv2B7f","WElEQnWexhxe01Pcg5uStXZHpg",121653868,1318,FALSE,"number_series_test_trial",17492,"NS_7","43","2.0","43",1
"oeHqGz00MABds0ueuvAhHv2B7f","WElEQnWexhxe01Pcg5uStXZHpg",121684203,1319,FALSE,"number_series_test_trial",30331,"NS_8","8900","2.0","8900",1
"oeHqGz00MABds0ueuvAhHv2B7f","WElEQnWexhxe01Pcg5uStXZHpg",121709980,1320,FALSE,"number_series_test_trial",25774,"NS_9","12/16","2.0","12/16",1
"MNyIE31KbTEqCZOUsiD7W0U3Fe","VCCySxh2dWTl7lzcapNNUER6eH",3719607,635,FALSE,"number_series_test_trial",9777,"NS_1","1","2.0","-2",0
"MNyIE31KbTEqCZOUsiD7W0U3Fe","VCCySxh2dWTl7lzcapNNUER6eH",3732631,636,FALSE,"number_series_test_trial",13020,"NS_2","25","2.0","28",0
"MNyIE31KbTEqCZOUsiD7W0U3Fe","VCCySxh2dWTl7lzcapNNUER6eH",3745195,637,FALSE,"number_series_test_trial",12559,"NS_3","49","2.0","64",0
"MNyIE31KbTEqCZOUsiD7W0U3Fe","VCCySxh2dWTl7lzcapNNUER6eH",3760115,638,FALSE,"number_series_test_trial",14914,"NS_4","30","2.0","29",0
"MNyIE31KbTEqCZOUsiD7W0U3Fe","VCCySxh2dWTl7lzcapNNUER6eH",3781876,639,FALSE,"number_series_test_trial",21757,"NS_5","6/18","2.0","8/16",0
"MNyIE31KbTEqCZOUsiD7W0U3Fe","VCCySxh2dWTl7lzcapNNUER6eH",3792082,640,FALSE,"number_series_test_trial",10200,"NS_6","181","2.0","165",0
"MNyIE31KbTEqCZOUsiD7W0U3Fe","VCCySxh2dWTl7lzcapNNUER6eH",3806844,641,FALSE,"number_series_test_trial",14757,"NS_7","12","2.0","43",0
"MNyIE31KbTEqCZOUsiD7W0U3Fe","VCCySxh2dWTl7lzcapNNUER6eH",3817512,642,FALSE,"number_series_test_trial",10662,"NS_8","7000","2.0","8900",0
"MNyIE31KbTEqCZOUsiD7W0U3Fe","VCCySxh2dWTl7lzcapNNUER6eH",3848517,643,TRUE,"number_series_test_trial",30999,"NS_9",NA,"2.0","12/16",NA
"F1jX5a1fyhOmMSGGJ09OiO1Fjy","CAYe2jSag9ihrsM3ohgAjMimmI",638220,95,FALSE,"number_series_test_trial",11484,"NS_1","-2","2.0","-2",1
"F1jX5a1fyhOmMSGGJ09OiO1Fjy","CAYe2jSag9ihrsM3ohgAjMimmI",645934,96,FALSE,"number_series_test_trial",7712,"NS_2","28","2.0","28",1
"F1jX5a1fyhOmMSGGJ09OiO1Fjy","CAYe2jSag9ihrsM3ohgAjMimmI",664302,97,FALSE,"number_series_test_trial",18366,"NS_3","63","2.0","64",0
"F1jX5a1fyhOmMSGGJ09OiO1Fjy","CAYe2jSag9ihrsM3ohgAjMimmI",683592,98,FALSE,"number_series_test_trial",19288,"NS_4","29","2.0","29",1
"F1jX5a1fyhOmMSGGJ09OiO1Fjy","CAYe2jSag9ihrsM3ohgAjMimmI",711777,99,FALSE,"number_series_test_trial",28183,"NS_5","8/16","2.0","8/16",1
"F1jX5a1fyhOmMSGGJ09OiO1Fjy","CAYe2jSag9ihrsM3ohgAjMimmI",742779,100,TRUE,"number_series_test_trial",31000,"NS_6",NA,"2.0","165",NA
"F1jX5a1fyhOmMSGGJ09OiO1Fjy","CAYe2jSag9ihrsM3ohgAjMimmI",773781,101,TRUE,"number_series_test_trial",30999,"NS_7",NA,"2.0","43",NA
"F1jX5a1fyhOmMSGGJ09OiO1Fjy","CAYe2jSag9ihrsM3ohgAjMimmI",802646,102,FALSE,"number_series_test_trial",28863,"NS_8","8990","2.0","8900",0
"F1jX5a1fyhOmMSGGJ09OiO1Fjy","CAYe2jSag9ihrsM3ohgAjMimmI",833648,103,TRUE,"number_series_test_trial",30999,"NS_9",NA,"2.0","12/16",NA
"XyLJWymItQkYtW0DIEV6NehQSR","boTbQhPLtYJwa0MUE3sTJLQuVd",4391254,1187,FALSE,"number_series_test_trial",8716,"NS_1","-2","3.0","-2",1
"XyLJWymItQkYtW0DIEV6NehQSR","boTbQhPLtYJwa0MUE3sTJLQuVd",4407708,1188,FALSE,"number_series_test_trial",16443,"NS_2","28","3.0","28",1
"XyLJWymItQkYtW0DIEV6NehQSR","boTbQhPLtYJwa0MUE3sTJLQuVd",4437497,1189,FALSE,"number_series_test_trial",29783,"NS_3","60","3.0","64",0
"XyLJWymItQkYtW0DIEV6NehQSR","boTbQhPLtYJwa0MUE3sTJLQuVd",4465789,1190,FALSE,"number_series_test_trial",28284,"NS_4","29","3.0","29",1
"XyLJWymItQkYtW0DIEV6NehQSR","boTbQhPLtYJwa0MUE3sTJLQuVd",4492894,1191,FALSE,"number_series_test_trial",27101,"NS_5","8/16","3.0","8/16",1
"XyLJWymItQkYtW0DIEV6NehQSR","boTbQhPLtYJwa0MUE3sTJLQuVd",4521729,1192,FALSE,"number_series_test_trial",28829,"NS_6","132","3.0","165",0
"XyLJWymItQkYtW0DIEV6NehQSR","boTbQhPLtYJwa0MUE3sTJLQuVd",4535835,1193,FALSE,"number_series_test_trial",14100,"NS_7","42","3.0","43",0
"XyLJWymItQkYtW0DIEV6NehQSR","boTbQhPLtYJwa0MUE3sTJLQuVd",4557027,1194,FALSE,"number_series_test_trial",21188,"NS_8","8900","3.0","8900",1
"XyLJWymItQkYtW0DIEV6NehQSR","boTbQhPLtYJwa0MUE3sTJLQuVd",4566416,1195,FALSE,"number_series_test_trial",9382,"NS_9","10/14","3.0","12/16",0
"gAE2vR87PHDrVwMvMSPhZ6AYWV","OtXMagMMs2jN8QtkrIBfz1hqOB",4410302,1316,FALSE,"number_series_test_trial",13405,"NS_1","2","2.0","-2",0
"gAE2vR87PHDrVwMvMSPhZ6AYWV","OtXMagMMs2jN8QtkrIBfz1hqOB",4418734,1317,FALSE,"number_series_test_trial",8417,"NS_2","27","2.0","28",0
"gAE2vR87PHDrVwMvMSPhZ6AYWV","OtXMagMMs2jN8QtkrIBfz1hqOB",4445509,1318,FALSE,"number_series_test_trial",26761,"NS_3","60","2.0","64",0
"gAE2vR87PHDrVwMvMSPhZ6AYWV","OtXMagMMs2jN8QtkrIBfz1hqOB",4464483,1319,FALSE,"number_series_test_trial",18960,"NS_4","29","2.0","29",1
"gAE2vR87PHDrVwMvMSPhZ6AYWV","OtXMagMMs2jN8QtkrIBfz1hqOB",4495077,1320,FALSE,"number_series_test_trial",30539,"NS_5","11/19","2.0","8/16",0
"gAE2vR87PHDrVwMvMSPhZ6AYWV","OtXMagMMs2jN8QtkrIBfz1hqOB",4515172,1321,FALSE,"number_series_test_trial",20063,"NS_6","111","2.0","165",0
"gAE2vR87PHDrVwMvMSPhZ6AYWV","OtXMagMMs2jN8QtkrIBfz1hqOB",4526935,1322,FALSE,"number_series_test_trial",11746,"NS_7","12","2.0","43",0
"gAE2vR87PHDrVwMvMSPhZ6AYWV","OtXMagMMs2jN8QtkrIBfz1hqOB",4548486,1323,FALSE,"number_series_test_trial",21538,"NS_8","8990","2.0","8900",0
"gAE2vR87PHDrVwMvMSPhZ6AYWV","OtXMagMMs2jN8QtkrIBfz1hqOB",4568414,1324,FALSE,"number_series_test_trial",19914,"NS_9","12/14","2.0","12/16",0
"44xwQio3fW3tYg3htRNjpHY5VQ","CEzDa8gx1mNJmyhsUKB4QZAook",108904,12,FALSE,"number_series_test_trial",17687,"NS_1","-2","2.0","-2",1
"44xwQio3fW3tYg3htRNjpHY5VQ","CEzDa8gx1mNJmyhsUKB4QZAook",117519,13,FALSE,"number_series_test_trial",8601,"NS_2","28","2.0","28",1
"44xwQio3fW3tYg3htRNjpHY5VQ","CEzDa8gx1mNJmyhsUKB4QZAook",148527,14,TRUE,"number_series_test_trial",30995,"NS_3",NA,"2.0","64",NA
"44xwQio3fW3tYg3htRNjpHY5VQ","CEzDa8gx1mNJmyhsUKB4QZAook",179530,15,TRUE,"number_series_test_trial",30990,"NS_4",NA,"2.0","29",NA
"44xwQio3fW3tYg3htRNjpHY5VQ","CEzDa8gx1mNJmyhsUKB4QZAook",210539,16,TRUE,"number_series_test_trial",30997,"NS_5",NA,"2.0","8/16",NA
"44xwQio3fW3tYg3htRNjpHY5VQ","CEzDa8gx1mNJmyhsUKB4QZAook",241546,17,TRUE,"number_series_test_trial",30986,"NS_6",NA,"2.0","165",NA
"44xwQio3fW3tYg3htRNjpHY5VQ","CEzDa8gx1mNJmyhsUKB4QZAook",272554,18,TRUE,"number_series_test_trial",30991,"NS_7",NA,"2.0","43",NA
"44xwQio3fW3tYg3htRNjpHY5VQ","CEzDa8gx1mNJmyhsUKB4QZAook",301331,19,FALSE,"number_series_test_trial",28768,"NS_8","8990","2.0","8900",0
"44xwQio3fW3tYg3htRNjpHY5VQ","CEzDa8gx1mNJmyhsUKB4QZAook",332339,20,TRUE,"number_series_test_trial",30992,"NS_9","12/15","2.0","12/16",0
"p5bY6MRaajBlnoMdRAvyO5gMIh","FlM4FSUMkEHPKmT4SX01bQ7Xr5",3678312,683,FALSE,"number_series_test_trial",19733,"NS_1","0","2.0","-2",0
"p5bY6MRaajBlnoMdRAvyO5gMIh","FlM4FSUMkEHPKmT4SX01bQ7Xr5",3697376,684,FALSE,"number_series_test_trial",19062,"NS_2","28","2.0","28",1
"p5bY6MRaajBlnoMdRAvyO5gMIh","FlM4FSUMkEHPKmT4SX01bQ7Xr5",3728379,685,TRUE,"number_series_test_trial",31001,"NS_3",NA,"2.0","64",NA
"p5bY6MRaajBlnoMdRAvyO5gMIh","FlM4FSUMkEHPKmT4SX01bQ7Xr5",3750296,686,FALSE,"number_series_test_trial",21916,"NS_4","28","2.0","29",0
"p5bY6MRaajBlnoMdRAvyO5gMIh","FlM4FSUMkEHPKmT4SX01bQ7Xr5",3775208,687,FALSE,"number_series_test_trial",24910,"NS_5","6/15","2.0","8/16",0
"p5bY6MRaajBlnoMdRAvyO5gMIh","FlM4FSUMkEHPKmT4SX01bQ7Xr5",3792792,688,FALSE,"number_series_test_trial",17583,"NS_6","170","2.0","165",0
"p5bY6MRaajBlnoMdRAvyO5gMIh","FlM4FSUMkEHPKmT4SX01bQ7Xr5",3806456,689,FALSE,"number_series_test_trial",13663,"NS_7","9","2.0","43",0
"p5bY6MRaajBlnoMdRAvyO5gMIh","FlM4FSUMkEHPKmT4SX01bQ7Xr5",3837458,690,TRUE,"number_series_test_trial",31000,"NS_8",NA,"2.0","8900",NA
"p5bY6MRaajBlnoMdRAvyO5gMIh","FlM4FSUMkEHPKmT4SX01bQ7Xr5",3865945,691,FALSE,"number_series_test_trial",28485,"NS_9","10/16","2.0","12/16",0
"KUD1kf6hnb3NShner2z1iesdGV","v0Jaq1J5Utn3cYRbPzF62YtBu4",1575851,639,FALSE,"number_series_test_trial",21532,"NS_1","-2","2.0","-2",1
"KUD1kf6hnb3NShner2z1iesdGV","v0Jaq1J5Utn3cYRbPzF62YtBu4",1590109,640,FALSE,"number_series_test_trial",14257,"NS_2","28","2.0","28",1
"KUD1kf6hnb3NShner2z1iesdGV","v0Jaq1J5Utn3cYRbPzF62YtBu4",1621115,641,TRUE,"number_series_test_trial",31003,"NS_3",NA,"2.0","64",NA
"KUD1kf6hnb3NShner2z1iesdGV","v0Jaq1J5Utn3cYRbPzF62YtBu4",1644523,642,FALSE,"number_series_test_trial",23403,"NS_4","29","2.0","29",1
"KUD1kf6hnb3NShner2z1iesdGV","v0Jaq1J5Utn3cYRbPzF62YtBu4",1675528,643,TRUE,"number_series_test_trial",31001,"NS_5",NA,"2.0","8/16",NA
"KUD1kf6hnb3NShner2z1iesdGV","v0Jaq1J5Utn3cYRbPzF62YtBu4",1706530,644,TRUE,"number_series_test_trial",30997,"NS_6","162","2.0","165",0
"KUD1kf6hnb3NShner2z1iesdGV","v0Jaq1J5Utn3cYRbPzF62YtBu4",1737534,645,TRUE,"number_series_test_trial",31002,"NS_7",NA,"2.0","43",NA
"KUD1kf6hnb3NShner2z1iesdGV","v0Jaq1J5Utn3cYRbPzF62YtBu4",1768537,646,TRUE,"number_series_test_trial",31000,"NS_8","8999","2.0","8900",0
"KUD1kf6hnb3NShner2z1iesdGV","v0Jaq1J5Utn3cYRbPzF62YtBu4",1799543,647,TRUE,"number_series_test_trial",31001,"NS_9","10/","2.0","12/16",0
"la8x8AdnYUHaEan01UUEsEl0S7","Dd6CRALvZox8EUK5YId54RXGxX",915385,54,FALSE,"number_series_test_trial",18325,"NS_1","-2","2.0","-2",1
"la8x8AdnYUHaEan01UUEsEl0S7","Dd6CRALvZox8EUK5YId54RXGxX",945266,55,FALSE,"number_series_test_trial",29876,"NS_2","24","2.0","28",0
"la8x8AdnYUHaEan01UUEsEl0S7","Dd6CRALvZox8EUK5YId54RXGxX",974799,56,FALSE,"number_series_test_trial",29521,"NS_3","64","2.0","64",1
"la8x8AdnYUHaEan01UUEsEl0S7","Dd6CRALvZox8EUK5YId54RXGxX",997591,57,FALSE,"number_series_test_trial",22784,"NS_4","24","2.0","29",0
"la8x8AdnYUHaEan01UUEsEl0S7","Dd6CRALvZox8EUK5YId54RXGxX",1028598,58,TRUE,"number_series_test_trial",30997,"NS_5","2","2.0","8/16",0
"la8x8AdnYUHaEan01UUEsEl0S7","Dd6CRALvZox8EUK5YId54RXGxX",1059603,59,TRUE,"number_series_test_trial",30995,"NS_6",NA,"2.0","165",NA
"la8x8AdnYUHaEan01UUEsEl0S7","Dd6CRALvZox8EUK5YId54RXGxX",1090606,60,TRUE,"number_series_test_trial",30996,"NS_7","3","2.0","43",0
"la8x8AdnYUHaEan01UUEsEl0S7","Dd6CRALvZox8EUK5YId54RXGxX",1117973,61,FALSE,"number_series_test_trial",27359,"NS_8","8900","2.0","8900",1
"la8x8AdnYUHaEan01UUEsEl0S7","Dd6CRALvZox8EUK5YId54RXGxX",1147342,62,FALSE,"number_series_test_trial",29361,"NS_9","10/16","2.0","12/16",0
"CftPJFR3yijEMNwpuvLEHE8vV1","vZkqmFf0VCMU02BsS1m8sDjvr4",3977084,1205,FALSE,"number_series_test_trial",14083,"NS_1","2","3.0","-2",0
"CftPJFR3yijEMNwpuvLEHE8vV1","vZkqmFf0VCMU02BsS1m8sDjvr4",3990281,1206,FALSE,"number_series_test_trial",13187,"NS_2","4","3.0","28",0
"CftPJFR3yijEMNwpuvLEHE8vV1","vZkqmFf0VCMU02BsS1m8sDjvr4",4000088,1207,FALSE,"number_series_test_trial",9794,"NS_3","9","3.0","64",0
"CftPJFR3yijEMNwpuvLEHE8vV1","vZkqmFf0VCMU02BsS1m8sDjvr4",4013304,1208,FALSE,"number_series_test_trial",13202,"NS_4","12","3.0","29",0
"CftPJFR3yijEMNwpuvLEHE8vV1","vZkqmFf0VCMU02BsS1m8sDjvr4",4044321,1209,TRUE,"number_series_test_trial",31005,"NS_5","7","3.0","8/16",0
"CftPJFR3yijEMNwpuvLEHE8vV1","vZkqmFf0VCMU02BsS1m8sDjvr4",4050930,1210,FALSE,"number_series_test_trial",6596,"NS_6","7","3.0","165",0
"CftPJFR3yijEMNwpuvLEHE8vV1","vZkqmFf0VCMU02BsS1m8sDjvr4",4058440,1211,FALSE,"number_series_test_trial",7505,"NS_7","4","3.0","43",0
"CftPJFR3yijEMNwpuvLEHE8vV1","vZkqmFf0VCMU02BsS1m8sDjvr4",4078791,1212,FALSE,"number_series_test_trial",20344,"NS_8","7890","3.0","8900",0
"CftPJFR3yijEMNwpuvLEHE8vV1","vZkqmFf0VCMU02BsS1m8sDjvr4",4109814,1213,TRUE,"number_series_test_trial",31011,"NS_9","12/36","3.0","12/16",0
"a19rHSdiFVGUooGIpt4JTlm8rU","E25AjyyKxoktoEdibQFPF6E1rz",238230743,64,TRUE,"number_series_test_trial",30994,"NS_1",NA,"3.0","-2",NA
"a19rHSdiFVGUooGIpt4JTlm8rU","E25AjyyKxoktoEdibQFPF6E1rz",238261747,65,TRUE,"number_series_test_trial",30993,"NS_2",NA,"3.0","28",NA
"a19rHSdiFVGUooGIpt4JTlm8rU","E25AjyyKxoktoEdibQFPF6E1rz",238292752,66,TRUE,"number_series_test_trial",30996,"NS_3",NA,"3.0","64",NA
"a19rHSdiFVGUooGIpt4JTlm8rU","E25AjyyKxoktoEdibQFPF6E1rz",238323754,67,TRUE,"number_series_test_trial",30994,"NS_4",NA,"3.0","29",NA
"a19rHSdiFVGUooGIpt4JTlm8rU","E25AjyyKxoktoEdibQFPF6E1rz",238354758,68,TRUE,"number_series_test_trial",31001,"NS_5",NA,"3.0","8/16",NA
"a19rHSdiFVGUooGIpt4JTlm8rU","E25AjyyKxoktoEdibQFPF6E1rz",238385762,69,TRUE,"number_series_test_trial",30995,"NS_6",NA,"3.0","165",NA
"a19rHSdiFVGUooGIpt4JTlm8rU","E25AjyyKxoktoEdibQFPF6E1rz",238416767,70,TRUE,"number_series_test_trial",30995,"NS_7",NA,"3.0","43",NA
"a19rHSdiFVGUooGIpt4JTlm8rU","E25AjyyKxoktoEdibQFPF6E1rz",238447771,71,TRUE,"number_series_test_trial",30995,"NS_8",NA,"3.0","8900",NA
"a19rHSdiFVGUooGIpt4JTlm8rU","E25AjyyKxoktoEdibQFPF6E1rz",238478774,72,TRUE,"number_series_test_trial",30993,"NS_9",NA,"3.0","12/16",NA
"1ZpoTHwtV5ZupDMh0yOraaMYTG","nmia5NKdcaSuqrD5c2ApVcJJIK",4926881,424,FALSE,"number_series_test_trial",6660,"NS_1","-2","3.0","-2",1
"1ZpoTHwtV5ZupDMh0yOraaMYTG","nmia5NKdcaSuqrD5c2ApVcJJIK",4936601,425,FALSE,"number_series_test_trial",9718,"NS_2","28","3.0","28",1
"1ZpoTHwtV5ZupDMh0yOraaMYTG","nmia5NKdcaSuqrD5c2ApVcJJIK",4941881,426,FALSE,"number_series_test_trial",5278,"NS_3","64","3.0","64",1
"1ZpoTHwtV5ZupDMh0yOraaMYTG","nmia5NKdcaSuqrD5c2ApVcJJIK",4951409,427,FALSE,"number_series_test_trial",9526,"NS_4","29","3.0","29",1
"1ZpoTHwtV5ZupDMh0yOraaMYTG","nmia5NKdcaSuqrD5c2ApVcJJIK",4966697,428,FALSE,"number_series_test_trial",15286,"NS_5","8/16","3.0","8/16",1
"1ZpoTHwtV5ZupDMh0yOraaMYTG","nmia5NKdcaSuqrD5c2ApVcJJIK",4984305,429,FALSE,"number_series_test_trial",17606,"NS_6","120","3.0","165",0
"1ZpoTHwtV5ZupDMh0yOraaMYTG","nmia5NKdcaSuqrD5c2ApVcJJIK",5003761,430,FALSE,"number_series_test_trial",19454,"NS_7","43","3.0","43",1
"1ZpoTHwtV5ZupDMh0yOraaMYTG","nmia5NKdcaSuqrD5c2ApVcJJIK",5016296,431,FALSE,"number_series_test_trial",12533,"NS_8","8900","3.0","8900",1
"1ZpoTHwtV5ZupDMh0yOraaMYTG","nmia5NKdcaSuqrD5c2ApVcJJIK",5045776,432,FALSE,"number_series_test_trial",29479,"NS_9","12/16","3.0","12/16",1
"3RiQtKgue68aiSeE0OqmSYWM5a","qfvdLYQenf8oBTTHc7VhZlZIle",723429,55,FALSE,"number_series_test_trial",26622,"NS_1","-12","3.0","-2",0
"3RiQtKgue68aiSeE0OqmSYWM5a","qfvdLYQenf8oBTTHc7VhZlZIle",736126,56,FALSE,"number_series_test_trial",12694,"NS_2","28","3.0","28",1
"3RiQtKgue68aiSeE0OqmSYWM5a","qfvdLYQenf8oBTTHc7VhZlZIle",747752,57,FALSE,"number_series_test_trial",11625,"NS_3","64","3.0","64",1
"3RiQtKgue68aiSeE0OqmSYWM5a","qfvdLYQenf8oBTTHc7VhZlZIle",767476,58,FALSE,"number_series_test_trial",19722,"NS_4","30","3.0","29",0
"3RiQtKgue68aiSeE0OqmSYWM5a","qfvdLYQenf8oBTTHc7VhZlZIle",798479,59,TRUE,"number_series_test_trial",31001,"NS_5",NA,"3.0","8/16",NA
"3RiQtKgue68aiSeE0OqmSYWM5a","qfvdLYQenf8oBTTHc7VhZlZIle",815927,60,FALSE,"number_series_test_trial",17445,"NS_6","158","3.0","165",0
"3RiQtKgue68aiSeE0OqmSYWM5a","qfvdLYQenf8oBTTHc7VhZlZIle",836129,61,FALSE,"number_series_test_trial",20200,"NS_7","42","3.0","43",0
"3RiQtKgue68aiSeE0OqmSYWM5a","qfvdLYQenf8oBTTHc7VhZlZIle",861982,62,FALSE,"number_series_test_trial",25850,"NS_8","8995","3.0","8900",0
"3RiQtKgue68aiSeE0OqmSYWM5a","qfvdLYQenf8oBTTHc7VhZlZIle",892891,63,FALSE,"number_series_test_trial",30907,"NS_9","10/15","3.0","12/16",0
"nPHlI0wMezMlr4dlNlYp3MfY8E","fEiTjWQ7jfEGhhS73FOiDHRyB5",727962,367,FALSE,"number_series_test_trial",19669,"NS_1","-2","3.0","-2",1
"nPHlI0wMezMlr4dlNlYp3MfY8E","fEiTjWQ7jfEGhhS73FOiDHRyB5",738284,368,FALSE,"number_series_test_trial",10318,"NS_2","28","3.0","28",1
"nPHlI0wMezMlr4dlNlYp3MfY8E","fEiTjWQ7jfEGhhS73FOiDHRyB5",748230,369,FALSE,"number_series_test_trial",9940,"NS_3","64","3.0","64",1
"nPHlI0wMezMlr4dlNlYp3MfY8E","fEiTjWQ7jfEGhhS73FOiDHRyB5",778494,370,FALSE,"number_series_test_trial",30257,"NS_4","29","3.0","29",1
"nPHlI0wMezMlr4dlNlYp3MfY8E","fEiTjWQ7jfEGhhS73FOiDHRyB5",809499,371,TRUE,"number_series_test_trial",30999,"NS_5","8","3.0","8/16",0
"nPHlI0wMezMlr4dlNlYp3MfY8E","fEiTjWQ7jfEGhhS73FOiDHRyB5",840501,372,TRUE,"number_series_test_trial",30998,"NS_6",NA,"3.0","165",NA
"nPHlI0wMezMlr4dlNlYp3MfY8E","fEiTjWQ7jfEGhhS73FOiDHRyB5",871505,373,TRUE,"number_series_test_trial",30999,"NS_7",NA,"3.0","43",NA
"nPHlI0wMezMlr4dlNlYp3MfY8E","fEiTjWQ7jfEGhhS73FOiDHRyB5",889309,374,FALSE,"number_series_test_trial",17799,"NS_8","8000","3.0","8900",0
"nPHlI0wMezMlr4dlNlYp3MfY8E","fEiTjWQ7jfEGhhS73FOiDHRyB5",920314,375,TRUE,"number_series_test_trial",30998,"NS_9","12/","3.0","12/16",0
"4OtEHqpMuSDZL9IlNUTQwhtVKj","IljlldU2Pt6Yj9c0qBQjY8gC1m",5955270,1265,FALSE,"number_series_test_trial",9989,"NS_1","-2","2.0","-2",1
"4OtEHqpMuSDZL9IlNUTQwhtVKj","IljlldU2Pt6Yj9c0qBQjY8gC1m",5963685,1266,FALSE,"number_series_test_trial",8413,"NS_2","28","2.0","28",1
"4OtEHqpMuSDZL9IlNUTQwhtVKj","IljlldU2Pt6Yj9c0qBQjY8gC1m",5988935,1267,FALSE,"number_series_test_trial",25249,"NS_3","65","2.0","64",0
"4OtEHqpMuSDZL9IlNUTQwhtVKj","IljlldU2Pt6Yj9c0qBQjY8gC1m",6019946,1268,TRUE,"number_series_test_trial",31008,"NS_4",NA,"2.0","29",NA
"4OtEHqpMuSDZL9IlNUTQwhtVKj","IljlldU2Pt6Yj9c0qBQjY8gC1m",6045700,1269,FALSE,"number_series_test_trial",25752,"NS_5","8/16","2.0","8/16",1
"4OtEHqpMuSDZL9IlNUTQwhtVKj","IljlldU2Pt6Yj9c0qBQjY8gC1m",6069666,1270,FALSE,"number_series_test_trial",23965,"NS_6","120","2.0","165",0
"4OtEHqpMuSDZL9IlNUTQwhtVKj","IljlldU2Pt6Yj9c0qBQjY8gC1m",6086467,1271,FALSE,"number_series_test_trial",16799,"NS_7","190","2.0","43",0
"4OtEHqpMuSDZL9IlNUTQwhtVKj","IljlldU2Pt6Yj9c0qBQjY8gC1m",6099367,1272,FALSE,"number_series_test_trial",12898,"NS_8","8900","2.0","8900",1
"4OtEHqpMuSDZL9IlNUTQwhtVKj","IljlldU2Pt6Yj9c0qBQjY8gC1m",6130373,1273,TRUE,"number_series_test_trial",31005,"NS_9","12/18","2.0","12/16",0
"h5ksrMHPeb25v21INaHw13aWWi","2JXgRlYwKeCSyD9HJW8hVvU49P",3122696,1229,FALSE,"number_series_test_trial",6817,"NS_1","-2","3.0","-2",1
"h5ksrMHPeb25v21INaHw13aWWi","2JXgRlYwKeCSyD9HJW8hVvU49P",3130036,1230,FALSE,"number_series_test_trial",7335,"NS_2","28","3.0","28",1
"h5ksrMHPeb25v21INaHw13aWWi","2JXgRlYwKeCSyD9HJW8hVvU49P",3145492,1231,FALSE,"number_series_test_trial",15449,"NS_3","63","3.0","64",0
"h5ksrMHPeb25v21INaHw13aWWi","2JXgRlYwKeCSyD9HJW8hVvU49P",3151069,1232,FALSE,"number_series_test_trial",5575,"NS_4","27","3.0","29",0
"h5ksrMHPeb25v21INaHw13aWWi","2JXgRlYwKeCSyD9HJW8hVvU49P",3172494,1233,FALSE,"number_series_test_trial",21420,"NS_5","8/17","3.0","8/16",0
"h5ksrMHPeb25v21INaHw13aWWi","2JXgRlYwKeCSyD9HJW8hVvU49P",3199781,1234,FALSE,"number_series_test_trial",27283,"NS_6","160","3.0","165",0
"h5ksrMHPeb25v21INaHw13aWWi","2JXgRlYwKeCSyD9HJW8hVvU49P",3222701,1235,FALSE,"number_series_test_trial",22915,"NS_7","43","3.0","43",1
"h5ksrMHPeb25v21INaHw13aWWi","2JXgRlYwKeCSyD9HJW8hVvU49P",3242275,1236,FALSE,"number_series_test_trial",19570,"NS_8","9800","3.0","8900",0
"h5ksrMHPeb25v21INaHw13aWWi","2JXgRlYwKeCSyD9HJW8hVvU49P",3257338,1237,FALSE,"number_series_test_trial",15057,"NS_9","12/15","3.0","12/16",0
"iryqg2FDANfoL7xlBeKUYDqcKu","kMAtu3vc91n4MrYr0lZj27cNEv",1771878,82,FALSE,"number_series_test_trial",24022,"NS_1","-2","2.0","-2",1
"iryqg2FDANfoL7xlBeKUYDqcKu","kMAtu3vc91n4MrYr0lZj27cNEv",1782127,83,FALSE,"number_series_test_trial",10246,"NS_2","28","2.0","28",1
"iryqg2FDANfoL7xlBeKUYDqcKu","kMAtu3vc91n4MrYr0lZj27cNEv",1813138,84,TRUE,"number_series_test_trial",31008,"NS_3","67","2.0","64",0
"iryqg2FDANfoL7xlBeKUYDqcKu","kMAtu3vc91n4MrYr0lZj27cNEv",1834444,85,FALSE,"number_series_test_trial",21303,"NS_4","29","2.0","29",1
"iryqg2FDANfoL7xlBeKUYDqcKu","kMAtu3vc91n4MrYr0lZj27cNEv",1862293,86,FALSE,"number_series_test_trial",27846,"NS_5","8/16","2.0","8/16",1
"iryqg2FDANfoL7xlBeKUYDqcKu","kMAtu3vc91n4MrYr0lZj27cNEv",1893175,87,FALSE,"number_series_test_trial",30879,"NS_6","0","2.0","165",0
"iryqg2FDANfoL7xlBeKUYDqcKu","kMAtu3vc91n4MrYr0lZj27cNEv",1924183,88,TRUE,"number_series_test_trial",31005,"NS_7","43","2.0","43",1
"iryqg2FDANfoL7xlBeKUYDqcKu","kMAtu3vc91n4MrYr0lZj27cNEv",1955188,89,TRUE,"number_series_test_trial",31003,"NS_8","8900","2.0","8900",1
"iryqg2FDANfoL7xlBeKUYDqcKu","kMAtu3vc91n4MrYr0lZj27cNEv",1982093,90,FALSE,"number_series_test_trial",26901,"NS_9","12/16","2.0","12/16",1
"tVl9wKrTWCE8Y7ijKl9xEdIaND","qn3ywZ2DX9iI7gXCN8lst4on5p",897002,39,FALSE,"number_series_test_trial",7174,"NS_1","-2","2.0","-2",1
"tVl9wKrTWCE8Y7ijKl9xEdIaND","qn3ywZ2DX9iI7gXCN8lst4on5p",905851,40,FALSE,"number_series_test_trial",8848,"NS_2","28","2.0","28",1
