"session_id","session_restart_id","time_elapsed","trial_index","custom_timer_ended_trial","trial","response","rt","id","question_text","answer_1","answer_2","correct_answer","aig_version","correct","response_slider","response_choice","question_type","confidence_scaled"
"00hs52Bbsn97IZqlMWL5L34PAd","4tW0rTCeNaC6gDYaoqS8UfLyAm",4671931,1259,FALSE,0,"{'GK_17': '1', 'GK_17_slider': '100'}",7387,"GK_17","Which happened earlier in history?","Abraham Lincoln became President of USA","George Bush became President of USA",1,"aig_A",1,100,1,"GK",1
"00hs52Bbsn97IZqlMWL5L34PAd","4tW0rTCeNaC6gDYaoqS8UfLyAm",4679904,1261,FALSE,1,"{'GK_32': '1', 'GK_32_slider': '50'}",6372,"GK_32","Which element is found in greater quantity in the Sun?","Hydrogen","Helium",1,"aig_A",1,50,1,"GK",0
"00hs52Bbsn97IZqlMWL5L34PAd","4tW0rTCeNaC6gDYaoqS8UfLyAm",4686621,1263,FALSE,2,"{'GK_48': '2', 'GK_48_slider': '60'}",5630,"GK_48","All radioactivity is man-made.","True","False",2,"aig_A",1,60,2,"GK",0.2
"00hs52Bbsn97IZqlMWL5L34PAd","4tW0rTCeNaC6gDYaoqS8UfLyAm",4698825,1265,FALSE,3,"{'GK_71': '1', 'GK_71_slider': '50'}",11395,"GK_71","Ocean acidification is caused by:","Chemical spills in the ocean","Absorption of carbon dioxide by the ocean",2,"aig_A",0,50,1,"GK",0
"00hs52Bbsn97IZqlMWL5L34PAd","4tW0rTCeNaC6gDYaoqS8UfLyAm",4703350,1267,FALSE,4,"{'GK_49': '3'}",3542,"GK_49","What is the length of an Olympic swimming pool?","80 meters","50 meters",2,"aig_A",0,NA,3,"GK",NA
"00hs52Bbsn97IZqlMWL5L34PAd","4tW0rTCeNaC6gDYaoqS8UfLyAm",4718712,1269,FALSE,5,"{'GK_76': '3'}",14042,"GK_76","Which two sports both have 11 members of each team playing on the field (under normal circumstances)?","Field hockey and American Football","Ice hockey & Soccer",1,"aig_A",0,NA,3,"GK",NA
"00hs52Bbsn97IZqlMWL5L34PAd","4tW0rTCeNaC6gDYaoqS8UfLyAm",4741457,1271,TRUE,6,"{'GK_91': '2', 'GK_91_slider': '50'}",21003,"GK_91","A ball made of solid steel will not float on water. However, when steel is used to make a boat it floats because the steel is made less dense.","True","False",2,"aig_A",1,NA,2,"GK",NA
"00hs52Bbsn97IZqlMWL5L34PAd","4tW0rTCeNaC6gDYaoqS8UfLyAm",4757670,1273,FALSE,7,"{'GK_43': '2', 'GK_43_slider': '50'}",14801,"GK_43","Which happened earlier in history?","Alexander Graham Bell patents the telephone","Charles Darwin publishes 'The Origin of Species'",2,"aig_A",1,50,2,"GK",0
"00hs52Bbsn97IZqlMWL5L34PAd","4tW0rTCeNaC6gDYaoqS8UfLyAm",4763810,1275,FALSE,8,"{'GK_27': '1', 'GK_27_slider': '50'}",5301,"GK_27","Budapest is the capital of which county?","Hungary","Austria",1,"aig_A",1,50,1,"GK",0
"00hs52Bbsn97IZqlMWL5L34PAd","4tW0rTCeNaC6gDYaoqS8UfLyAm",4770968,1277,FALSE,9,"{'GK_85': '1', 'GK_85_slider': '50'}",6252,"GK_85","Most psychiatric therapies are based on Freud.","True","False",2,"aig_A",0,50,1,"GK",0
"00hs52Bbsn97IZqlMWL5L34PAd","4tW0rTCeNaC6gDYaoqS8UfLyAm",4778292,1279,FALSE,10,"{'GK_31': '2', 'GK_31_slider': '100'}",6675,"GK_31","Stretchiness, or the ability of an object or material to resume its normal shape after being stretched or compressed is?","Electricity","Elasticity",2,"aig_A",1,100,2,"GK",1
"00hs52Bbsn97IZqlMWL5L34PAd","4tW0rTCeNaC6gDYaoqS8UfLyAm",4784553,1281,FALSE,11,"{'IQ_8': '3'}",5189,"IQ_8","What is the nutritional value of a Golgrest Fruit?","High in Protein","Low in Carbohydrates",3,"aig_A",1,NA,3,"IQ",NA
"00hs52Bbsn97IZqlMWL5L34PAd","4tW0rTCeNaC6gDYaoqS8UfLyAm",4793045,1283,FALSE,12,"{'GK_39': '1', 'GK_39_slider': '50'}",7619,"GK_39","The Pacific Ocean's area is larger than all the earth's masses combined.","True","False",1,"aig_A",1,50,1,"GK",0
"00hs52Bbsn97IZqlMWL5L34PAd","4tW0rTCeNaC6gDYaoqS8UfLyAm",4804913,1285,FALSE,13,"{'GK_35': '2', 'GK_35_slider': '100'}",11187,"GK_35","Global warming is a humanitarian initiative to slow down freezing in the North Pole.","True","False",2,"aig_A",1,100,2,"GK",1
"00hs52Bbsn97IZqlMWL5L34PAd","4tW0rTCeNaC6gDYaoqS8UfLyAm",4814821,1287,FALSE,14,"{'IQ_11': '2', 'IQ_11_slider': '50'}",9107,"IQ_11","What does the Veklin Procedure involve?","A sequence of precise surgical incisions","A complex mathematical equation",3,"aig_A",0,50,2,"IQ",0
"00hs52Bbsn97IZqlMWL5L34PAd","4tW0rTCeNaC6gDYaoqS8UfLyAm",4831189,1289,FALSE,15,"{'GK_74': '2', 'GK_74_slider': '50'}",15552,"GK_74","It is possible for water to exist in liquid form below 0 degrees C (32 degrees F)","True","False",1,"aig_A",0,50,2,"GK",0
"00hs52Bbsn97IZqlMWL5L34PAd","4tW0rTCeNaC6gDYaoqS8UfLyAm",4837107,1291,FALSE,16,"{'GK_7': '1', 'GK_7_slider': '100'}",5037,"GK_7","How many points is a touchdown in American Football?","6","8",1,"aig_A",1,100,1,"GK",1
"00hs52Bbsn97IZqlMWL5L34PAd","4tW0rTCeNaC6gDYaoqS8UfLyAm",4855811,1293,FALSE,17,"{'GK_25': '2', 'GK_25_slider': '90'}",17944,"GK_25","Given: Some hair is red. No red is green. Logical conclusion: Anything green cannot be hair.","True","False",2,"aig_A",1,90,2,"GK",0.8
"00hs52Bbsn97IZqlMWL5L34PAd","4tW0rTCeNaC6gDYaoqS8UfLyAm",4869165,1295,FALSE,18,"{'IQ_12': '3'}",12426,"IQ_12","How does Binoxelation Impact Theory explain the growth of crystals?","Through thermodynamics","Through quantum mechanics",3,"aig_A",1,NA,3,"IQ",NA
"00hs52Bbsn97IZqlMWL5L34PAd","4tW0rTCeNaC6gDYaoqS8UfLyAm",4876689,1297,FALSE,19,"{'GK_20': '1', 'GK_20_slider': '50'}",6316,"GK_20","Moderate earthquakes (5.0 - 5.9 on the Richter Scale) happen approximately twice a day.","True","False",1,"aig_A",1,50,1,"GK",0
"00hs52Bbsn97IZqlMWL5L34PAd","4tW0rTCeNaC6gDYaoqS8UfLyAm",4882488,1299,FALSE,20,"{'GK_11': '2', 'GK_11_slider': '50'}",4983,"GK_11","The world population is approximately:","7 million","7 billion",2,"aig_A",1,50,2,"GK",0
"00hs52Bbsn97IZqlMWL5L34PAd","4tW0rTCeNaC6gDYaoqS8UfLyAm",4888092,1301,FALSE,21,"{'IQ_10': '3'}",4675,"IQ_10","What is the cure for Zolbrod's syndrome?","Immunotherapy","Radiation Therapy",3,"aig_A",1,NA,3,"IQ",NA
"00hs52Bbsn97IZqlMWL5L34PAd","4tW0rTCeNaC6gDYaoqS8UfLyAm",4896705,1303,FALSE,22,"{'GK_38': '3'}",7780,"GK_38","Phnom penh is the capital of which country?","Vietnam","Cambodia",2,"aig_A",0,NA,3,"GK",NA
"00hs52Bbsn97IZqlMWL5L34PAd","4tW0rTCeNaC6gDYaoqS8UfLyAm",4905341,1305,FALSE,23,"{'GK_28': '1', 'GK_28_slider': '70'}",7796,"GK_28","Greenhouse effect refers to:","Gases in the atmosphere that trap heat","Impact to the Earth's ozone layer",1,"aig_A",1,70,1,"GK",0.4
"00hs52Bbsn97IZqlMWL5L34PAd","4tW0rTCeNaC6gDYaoqS8UfLyAm",4913945,1307,FALSE,24,"{'IQ_9': '3'}",7778,"IQ_9","What is the speed of a Blargan Horse?","Faster than a Cheetah","Slower than a Snail",3,"aig_A",1,NA,3,"IQ",NA
"00hs52Bbsn97IZqlMWL5L34PAd","4tW0rTCeNaC6gDYaoqS8UfLyAm",4919366,1309,FALSE,25,"{'GK_89': '1', 'GK_89_slider': '89'}",4517,"GK_89","Humans have evolved from monkeys.","True","False",2,"aig_A",0,89,1,"GK",0.78
"00hs52Bbsn97IZqlMWL5L34PAd","4tW0rTCeNaC6gDYaoqS8UfLyAm",4941129,1311,TRUE,26,"{}",21002,"GK_94","If A is neccessary for B to occur and C is sufficient for B to occur, then it follows that if C has occured, it implies that A has also occured.","True","False",1,"aig_A",NA,NA,NA,"GK",NA
"00hs52Bbsn97IZqlMWL5L34PAd","4tW0rTCeNaC6gDYaoqS8UfLyAm",4952376,1313,FALSE,27,"{'IQ_7': '1', 'IQ_7_slider': '50'}",10043,"IQ_7","When did the Laikrev Uprising occur?","During the Renaissance","During the Industrial Revolution",3,"aig_A",0,50,1,"IQ",0
"00hs52Bbsn97IZqlMWL5L34PAd","4tW0rTCeNaC6gDYaoqS8UfLyAm",4958029,1315,FALSE,28,"{'GK_54': '2', 'GK_54_slider': '50'}",4909,"GK_54","What was the beta (early) version of the Internet called?","ARPAnet","Intranet",1,"aig_A",0,50,2,"GK",0
"00hs52Bbsn97IZqlMWL5L34PAd","4tW0rTCeNaC6gDYaoqS8UfLyAm",4970271,1317,FALSE,29,"{'GK_46': '2', 'GK_46_slider': '100'}",11475,"GK_46","In a lake, there is a patch of lily pads. Every day, the patch doubles in size. If it takes 48 days for the patch to cover the entire lake, how long would it take for the patch to cover half of the lake? _____ days","24 days","47 days",2,"aig_A",1,100,2,"GK",1
"0cjm29GeNojiuYNsUasIBPXgw7","fNTjZnIX9H6atOAWQHkNmmWXoM",2884317,798,FALSE,0,"{'GK_21': '2', 'GK_21_slider': '100'}",7375,"GK_21","The number of weeks in a year is approximately:","500","52",2,"anchor",1,100,2,"GK",1
"0cjm29GeNojiuYNsUasIBPXgw7","fNTjZnIX9H6atOAWQHkNmmWXoM",2895783,800,FALSE,1,"{'GK_84': '1', 'GK_84_slider': '70'}",9417,"GK_84","How many gold medals did Michael Phelps win at the Beijing Olympics?","4","8",2,"anchor",0,70,1,"GK",0.4
"0cjm29GeNojiuYNsUasIBPXgw7","fNTjZnIX9H6atOAWQHkNmmWXoM",2905660,802,FALSE,2,"{'GK_6': '1', 'GK_6_slider': '79'}",7474,"GK_6","Which of the following is found in plant cells but not animal cells?","Chloroplasts","Ribosome",1,"anchor",1,79,1,"GK",0.58
"0cjm29GeNojiuYNsUasIBPXgw7","fNTjZnIX9H6atOAWQHkNmmWXoM",2920671,804,FALSE,3,"{'GK_70': '1', 'GK_70_slider': '60'}",13183,"GK_70","A man bought a car for $10,000. He sold the car once the price fell by 17%, and invested the money so that he then got back $10,000. His profit on the invested amount is approximately:","0.17","0.2",2,"anchor",0,60,1,"GK",0.2
"0cjm29GeNojiuYNsUasIBPXgw7","fNTjZnIX9H6atOAWQHkNmmWXoM",2929479,806,FALSE,4,"{'GK_55': '2', 'GK_55_slider': '62'}",7131,"GK_55","Autism has become an epidemic.","True","False",2,"anchor",1,62,2,"GK",0.24
"0cjm29GeNojiuYNsUasIBPXgw7","fNTjZnIX9H6atOAWQHkNmmWXoM",2939788,808,FALSE,5,"{'GK_86': '2', 'GK_86_slider': '68'}",8496,"GK_86","The velocity of a radio wave and a visible light wave in a vacuum are the same.","True","False",1,"anchor",0,68,2,"GK",0.36
"0cjm29GeNojiuYNsUasIBPXgw7","fNTjZnIX9H6atOAWQHkNmmWXoM",2947494,810,FALSE,6,"{'GK_64': '1', 'GK_64_slider': '80'}",5924,"GK_64","Human children have more bones than adults.","True","False",1,"anchor",1,80,1,"GK",0.6
"0cjm29GeNojiuYNsUasIBPXgw7","fNTjZnIX9H6atOAWQHkNmmWXoM",2956832,812,FALSE,7,"{'GK_80': '1', 'GK_80_slider': '82'}",7224,"GK_80","Most diamonds are not formed from coal.","True","False",1,"anchor",1,82,1,"GK",0.64
"0cjm29GeNojiuYNsUasIBPXgw7","fNTjZnIX9H6atOAWQHkNmmWXoM",2973132,814,FALSE,8,"{'GK_75': '1', 'GK_75_slider': '80'}",14812,"GK_75","In 2006, the status of the then planet Pluto was reduced to 'dwarf Planet' so that it was no longer officially the ninth planet in our Solar system. The reason for this was because its' gravitational force was not enough to","Maintain its regular orbit around the sun","Clear its neighbouring region of planetesimals and asteroids etc.",2,"anchor",0,80,1,"GK",0.6
"0cjm29GeNojiuYNsUasIBPXgw7","fNTjZnIX9H6atOAWQHkNmmWXoM",2982500,816,FALSE,9,"{'IQ_1': '1', 'IQ_1_slider': '58'}",7732,"IQ_1","When did the battle of Kavkav take place?","Before 1647","After 1647",3,"anchor",0,58,1,"IQ",0.16
"0cjm29GeNojiuYNsUasIBPXgw7","fNTjZnIX9H6atOAWQHkNmmWXoM",2992170,818,FALSE,10,"{'GK_36': '1', 'GK_36_slider': '70'}",8112,"GK_36","Ocean currents carry heat from the equator toward the north and south poles.","True","False",1,"anchor",1,70,1,"GK",0.4
"0cjm29GeNojiuYNsUasIBPXgw7","fNTjZnIX9H6atOAWQHkNmmWXoM",3004298,820,FALSE,11,"{'GK_72': '2', 'GK_72_slider': '80'}",10328,"GK_72","The total number of cinema visits in USA in 2018 were approximately how much?","130 million","1.3 billion",2,"anchor",1,80,2,"GK",0.6
"0cjm29GeNojiuYNsUasIBPXgw7","fNTjZnIX9H6atOAWQHkNmmWXoM",3011367,822,FALSE,12,"{'GK_3': '1', 'GK_3_slider': '100'}",5198,"GK_3","Apples are classified as:","Fruits","Vegetables",1,"anchor",1,100,1,"GK",1
"0cjm29GeNojiuYNsUasIBPXgw7","fNTjZnIX9H6atOAWQHkNmmWXoM",3022903,824,FALSE,13,"{'IQ_3': '2', 'IQ_3_slider': '74'}",9910,"IQ_3","What is the population of Synomle?","More than 10,000","Less than 10,000",3,"anchor",0,74,2,"IQ",0.48
"0cjm29GeNojiuYNsUasIBPXgw7","fNTjZnIX9H6atOAWQHkNmmWXoM",3031366,826,FALSE,14,"{'GK_42': '1', 'GK_42_slider': '80'}",6828,"GK_42","Which happened earlier in history?","Chinese issue the first paper money","European sailors begin to use the magnetic compass",1,"anchor",1,80,1,"GK",0.6
"0cjm29GeNojiuYNsUasIBPXgw7","fNTjZnIX9H6atOAWQHkNmmWXoM",3040935,828,FALSE,15,"{'GK_69': '1', 'GK_69_slider': '69'}",7966,"GK_69","Which is the smallest independent country?","Monaco","Vatican City",2,"anchor",0,69,1,"GK",0.38
"0cjm29GeNojiuYNsUasIBPXgw7","fNTjZnIX9H6atOAWQHkNmmWXoM",3052215,830,FALSE,16,"{'IQ_5': '2', 'IQ_5_slider': '59'}",9714,"IQ_5","What is the Parlichev method?","A way of extracting minerals from soil","A way of determining the distance to a star",3,"anchor",0,59,2,"IQ",0.18
"0cjm29GeNojiuYNsUasIBPXgw7","fNTjZnIX9H6atOAWQHkNmmWXoM",3060345,832,FALSE,17,"{'GK_4': '2', 'GK_4_slider': '100'}",6610,"GK_4","Which comes closest in meaning to the following word? Easy","Complex","Simple",2,"anchor",1,100,2,"GK",1
"0cjm29GeNojiuYNsUasIBPXgw7","fNTjZnIX9H6atOAWQHkNmmWXoM",3077742,834,FALSE,18,"{'GK_79': '1', 'GK_79_slider': '70'}",15442,"GK_79","Which one of the below is not a correct possible solution for x. | x - 9 | <  10.","-4","4",1,"anchor",1,70,1,"GK",0.4
"0cjm29GeNojiuYNsUasIBPXgw7","fNTjZnIX9H6atOAWQHkNmmWXoM",3085364,836,FALSE,19,"{'GK_22': '1', 'GK_22_slider': '95'}",5946,"GK_22","China has over 1 billion mobile cellular connections","True","False",1,"anchor",1,95,1,"GK",0.9
"0cjm29GeNojiuYNsUasIBPXgw7","fNTjZnIX9H6atOAWQHkNmmWXoM",3092750,838,FALSE,20,"{'GK_63': '1', 'GK_63_slider': '85'}",5930,"GK_63","Bats are not blind.","True","False",1,"anchor",1,85,1,"GK",0.7
"0cjm29GeNojiuYNsUasIBPXgw7","fNTjZnIX9H6atOAWQHkNmmWXoM",3103879,840,FALSE,21,"{'IQ_4': '2', 'IQ_4_slider': '70'}",9544,"IQ_4","What is the most prominent symptom of Seradot's disease?","A fever","A rash",3,"anchor",0,70,2,"IQ",0.4
"0cjm29GeNojiuYNsUasIBPXgw7","fNTjZnIX9H6atOAWQHkNmmWXoM",3123818,842,FALSE,22,"{'IQ_2': '1', 'IQ_2_slider': '80'}",17642,"IQ_2","How many sides does a Detseroid have?","More than 20","Less than 20",3,"anchor",0,80,1,"IQ",0.6
"0cjm29GeNojiuYNsUasIBPXgw7","fNTjZnIX9H6atOAWQHkNmmWXoM",3132405,844,FALSE,23,"{'GK_23': '1', 'GK_23_slider': '84'}",6953,"GK_23","Not all metals are attracted to magnets","True","False",1,"anchor",1,84,1,"GK",0.68
"0cjm29GeNojiuYNsUasIBPXgw7","fNTjZnIX9H6atOAWQHkNmmWXoM",3141420,846,FALSE,24,"{'GK_2': '1', 'GK_2_slider': '85'}",7496,"GK_2","The radius of the Earth is approximately...","4000 miles","200 miles",1,"anchor",1,85,1,"GK",0.7
"0cjm29GeNojiuYNsUasIBPXgw7","fNTjZnIX9H6atOAWQHkNmmWXoM",3161261,848,FALSE,25,"{'IQ_6': '1', 'IQ_6_slider': '66'}",18160,"IQ_6","Resistance Configuration Theory is a psychological theory that explains:","How people avoid blame and why they do not recognize when something is their fault","Why certain people do not try new experiences",3,"anchor",0,66,1,"IQ",0.32
"0cjm29GeNojiuYNsUasIBPXgw7","fNTjZnIX9H6atOAWQHkNmmWXoM",3173326,850,FALSE,26,"{'GK_90': '1', 'GK_90_slider': '83'}",10608,"GK_90","The reason we experience seasons is because the distance between the earth and sun changes.","True","False",2,"anchor",0,83,1,"GK",0.66
"0cjm29GeNojiuYNsUasIBPXgw7","fNTjZnIX9H6atOAWQHkNmmWXoM",3185367,852,FALSE,27,"{'GK_14': '1', 'GK_14_slider': '87'}",10536,"GK_14","Methane, Carbon Dioxide and Water vapor in the atmosphere are all good at trapping heat from the Earth's surface","True","False",1,"anchor",1,87,1,"GK",0.74
"0cjm29GeNojiuYNsUasIBPXgw7","fNTjZnIX9H6atOAWQHkNmmWXoM",3196797,854,FALSE,28,"{'GK_61': '1', 'GK_61_slider': '74'}",9943,"GK_61","Which comes closest in meaning to the following word? Intransigent","Transitory","Inflexible",2,"anchor",0,74,1,"GK",0.48
"0cjm29GeNojiuYNsUasIBPXgw7","fNTjZnIX9H6atOAWQHkNmmWXoM",3206245,856,FALSE,29,"{'GK_53': '2', 'GK_53_slider': '74'}",8012,"GK_53","The top 10 car manufacturing countries produced approximately how many new cars in 2014?","50 milion","10 million",1,"anchor",0,74,2,"GK",0.48
"0cxe8fZLamHcc6kdd4QgXwISRo","xgRvBq6DowZ5suFssc0zjulHVw",1053481,636,FALSE,0,"{'IQ_12': '3'}",5515,"IQ_12","How does Binoxelation Impact Theory explain the growth of crystals?","Through thermodynamics","Through quantum mechanics",3,"aig_A",1,NA,3,"IQ",NA
"0cxe8fZLamHcc6kdd4QgXwISRo","xgRvBq6DowZ5suFssc0zjulHVw",1073022,638,FALSE,1,"{'GK_25': '2', 'GK_25_slider': '79'}",17201,"GK_25","Given: Some hair is red. No red is green. Logical conclusion: Anything green cannot be hair.","True","False",2,"aig_A",1,79,2,"GK",0.58
"0cxe8fZLamHcc6kdd4QgXwISRo","xgRvBq6DowZ5suFssc0zjulHVw",1080470,640,FALSE,2,"{'GK_89': '1', 'GK_89_slider': '100'}",5381,"GK_89","Humans have evolved from monkeys.","True","False",2,"aig_A",0,100,1,"GK",1
"0cxe8fZLamHcc6kdd4QgXwISRo","xgRvBq6DowZ5suFssc0zjulHVw",1089546,642,FALSE,3,"{'GK_28': '1', 'GK_28_slider': '100'}",7979,"GK_28","Greenhouse effect refers to:","Gases in the atmosphere that trap heat","Impact to the Earth's ozone layer",1,"aig_A",1,100,1,"GK",1
"0cxe8fZLamHcc6kdd4QgXwISRo","xgRvBq6DowZ5suFssc0zjulHVw",1097435,644,FALSE,4,"{'IQ_8': '1', 'IQ_8_slider': '69'}",6940,"IQ_8","What is the nutritional value of a Golgrest Fruit?","High in Protein","Low in Carbohydrates",3,"aig_A",0,69,1,"IQ",0.38
"0cxe8fZLamHcc6kdd4QgXwISRo","xgRvBq6DowZ5suFssc0zjulHVw",1112262,646,FALSE,5,"{'GK_74': '2', 'GK_74_slider': '100'}",13808,"GK_74","It is possible for water to exist in liquid form below 0 degrees C (32 degrees F)","True","False",1,"aig_A",0,100,2,"GK",1
"0cxe8fZLamHcc6kdd4QgXwISRo","xgRvBq6DowZ5suFssc0zjulHVw",1119891,648,FALSE,6,"{'GK_54': '1', 'GK_54_slider': '91'}",6587,"GK_54","What was the beta (early) version of the Internet called?","ARPAnet","Intranet",1,"aig_A",1,91,1,"GK",0.82
"0cxe8fZLamHcc6kdd4QgXwISRo","xgRvBq6DowZ5suFssc0zjulHVw",1130618,650,FALSE,7,"{'IQ_9': '1', 'IQ_9_slider': '71'}",9476,"IQ_9","What is the speed of a Blargan Horse?","Faster than a Cheetah","Slower than a Snail",3,"aig_A",0,71,1,"IQ",0.42
"0cxe8fZLamHcc6kdd4QgXwISRo","xgRvBq6DowZ5suFssc0zjulHVw",1138963,652,FALSE,8,"{'GK_31': '2', 'GK_31_slider': '100'}",7414,"GK_31","Stretchiness, or the ability of an object or material to resume its normal shape after being stretched or compressed is?","Electricity","Elasticity",2,"aig_A",1,100,2,"GK",1
"0cxe8fZLamHcc6kdd4QgXwISRo","xgRvBq6DowZ5suFssc0zjulHVw",1146453,654,FALSE,9,"{'IQ_10': '1', 'IQ_10_slider': '60'}",6695,"IQ_10","What is the cure for Zolbrod's syndrome?","Immunotherapy","Radiation Therapy",3,"aig_A",0,60,1,"IQ",0.2
"0cxe8fZLamHcc6kdd4QgXwISRo","xgRvBq6DowZ5suFssc0zjulHVw",1153032,656,FALSE,10,"{'GK_7': '1', 'GK_7_slider': '100'}",4878,"GK_7","How many points is a touchdown in American Football?","6","8",1,"aig_A",1,100,1,"GK",1
"0cxe8fZLamHcc6kdd4QgXwISRo","xgRvBq6DowZ5suFssc0zjulHVw",1158597,658,FALSE,11,"{'GK_11': '2', 'GK_11_slider': '100'}",4680,"GK_11","The world population is approximately:","7 million","7 billion",2,"aig_A",1,100,2,"GK",1
"0cxe8fZLamHcc6kdd4QgXwISRo","xgRvBq6DowZ5suFssc0zjulHVw",1167886,660,FALSE,12,"{'GK_35': '2', 'GK_35_slider': '100'}",8404,"GK_35","Global warming is a humanitarian initiative to slow down freezing in the North Pole.","True","False",2,"aig_A",1,100,2,"GK",1
"0cxe8fZLamHcc6kdd4QgXwISRo","xgRvBq6DowZ5suFssc0zjulHVw",1172830,662,FALSE,13,"{'GK_49': '2', 'GK_49_slider': '100'}",3794,"GK_49","What is the length of an Olympic swimming pool?","80 meters","50 meters",2,"aig_A",1,100,2,"GK",1
"0cxe8fZLamHcc6kdd4QgXwISRo","xgRvBq6DowZ5suFssc0zjulHVw",1182986,664,FALSE,14,"{'GK_71': '1', 'GK_71_slider': '90'}",9248,"GK_71","Ocean acidification is caused by:","Chemical spills in the ocean","Absorption of carbon dioxide by the ocean",2,"aig_A",0,90,1,"GK",0.8
"0cxe8fZLamHcc6kdd4QgXwISRo","xgRvBq6DowZ5suFssc0zjulHVw",1203883,666,FALSE,15,"{'GK_94': '2', 'GK_94_slider': '89'}",19988,"GK_94","If A is neccessary for B to occur and C is sufficient for B to occur, then it follows that if C has occured, it implies that A has also occured.","True","False",1,"aig_A",0,89,2,"GK",0.78
"0cxe8fZLamHcc6kdd4QgXwISRo","xgRvBq6DowZ5suFssc0zjulHVw",1211973,668,FALSE,16,"{'IQ_7': '2', 'IQ_7_slider': '100'}",7166,"IQ_7","When did the Laikrev Uprising occur?","During the Renaissance","During the Industrial Revolution",3,"aig_A",0,100,2,"IQ",1
"0cxe8fZLamHcc6kdd4QgXwISRo","xgRvBq6DowZ5suFssc0zjulHVw",1217280,670,FALSE,17,"{'GK_48': '2', 'GK_48_slider': '100'}",4475,"GK_48","All radioactivity is man-made.","True","False",2,"aig_A",1,100,2,"GK",1
"0cxe8fZLamHcc6kdd4QgXwISRo","xgRvBq6DowZ5suFssc0zjulHVw",1224243,672,FALSE,18,"{'GK_38': '2', 'GK_38_slider': '89'}",6047,"GK_38","Phnom penh is the capital of which country?","Vietnam","Cambodia",2,"aig_A",1,89,2,"GK",0.78
"0cxe8fZLamHcc6kdd4QgXwISRo","xgRvBq6DowZ5suFssc0zjulHVw",1235370,674,FALSE,19,"{'GK_43': '2', 'GK_43_slider': '80'}",10265,"GK_43","Which happened earlier in history?","Alexander Graham Bell patents the telephone","Charles Darwin publishes 'The Origin of Species'",2,"aig_A",1,80,2,"GK",0.6
"0cxe8fZLamHcc6kdd4QgXwISRo","xgRvBq6DowZ5suFssc0zjulHVw",1250946,676,FALSE,20,"{'GK_39': '2', 'GK_39_slider': '79'}",14167,"GK_39","The Pacific Ocean's area is larger than all the earth's masses combined.","True","False",1,"aig_A",0,79,2,"GK",0.58
"0cxe8fZLamHcc6kdd4QgXwISRo","xgRvBq6DowZ5suFssc0zjulHVw",1258238,678,FALSE,21,"{'GK_20': '1', 'GK_20_slider': '90'}",6233,"GK_20","Moderate earthquakes (5.0 - 5.9 on the Richter Scale) happen approximately twice a day.","True","False",1,"aig_A",1,90,1,"GK",0.8
"0cxe8fZLamHcc6kdd4QgXwISRo","xgRvBq6DowZ5suFssc0zjulHVw",1270771,680,FALSE,22,"{'GK_91': '1', 'GK_91_slider': '90'}",11686,"GK_91","A ball made of solid steel will not float on water. However, when steel is used to make a boat it floats because the steel is made less dense.","True","False",2,"aig_A",0,90,1,"GK",0.8
"0cxe8fZLamHcc6kdd4QgXwISRo","xgRvBq6DowZ5suFssc0zjulHVw",1277178,682,FALSE,23,"{'GK_85': '2', 'GK_85_slider': '70'}",5507,"GK_85","Most psychiatric therapies are based on Freud.","True","False",2,"aig_A",1,70,2,"GK",0.4
"0cxe8fZLamHcc6kdd4QgXwISRo","xgRvBq6DowZ5suFssc0zjulHVw",1288177,684,FALSE,24,"{'GK_46': '1', 'GK_46_slider': '100'}",9700,"GK_46","In a lake, there is a patch of lily pads. Every day, the patch doubles in size. If it takes 48 days for the patch to cover the entire lake, how long would it take for the patch to cover half of the lake? _____ days","24 days","47 days",2,"aig_A",0,100,1,"GK",1
"0cxe8fZLamHcc6kdd4QgXwISRo","xgRvBq6DowZ5suFssc0zjulHVw",1292722,686,FALSE,25,"{'GK_27': '1', 'GK_27_slider': '100'}",3456,"GK_27","Budapest is the capital of which county?","Hungary","Austria",1,"aig_A",1,100,1,"GK",1
"0cxe8fZLamHcc6kdd4QgXwISRo","xgRvBq6DowZ5suFssc0zjulHVw",1300725,688,FALSE,26,"{'GK_17': '1', 'GK_17_slider': '100'}",7173,"GK_17","Which happened earlier in history?","Abraham Lincoln became President of USA","George Bush became President of USA",1,"aig_A",1,100,1,"GK",1
"0cxe8fZLamHcc6kdd4QgXwISRo","xgRvBq6DowZ5suFssc0zjulHVw",1312868,690,FALSE,27,"{'GK_76': '2', 'GK_76_slider': '100'}",11218,"GK_76","Which two sports both have 11 members of each team playing on the field (under normal circumstances)?","Field hockey and American Football","Ice hockey & Soccer",1,"aig_A",0,100,2,"GK",1
"0cxe8fZLamHcc6kdd4QgXwISRo","xgRvBq6DowZ5suFssc0zjulHVw",1324452,692,FALSE,28,"{'IQ_11': '1', 'IQ_11_slider': '60'}",10565,"IQ_11","What does the Veklin Procedure involve?","A sequence of precise surgical incisions","A complex mathematical equation",3,"aig_A",0,60,1,"IQ",0.2
"0cxe8fZLamHcc6kdd4QgXwISRo","xgRvBq6DowZ5suFssc0zjulHVw",1333425,694,FALSE,29,"{'GK_32': '2', 'GK_32_slider': '80'}",7938,"GK_32","Which element is found in greater quantity in the Sun?","Hydrogen","Helium",1,"aig_A",0,80,2,"GK",0.6
"0rPBLR1xdsyOmMITDY2heezzJ9","oz8p8KZ7v1NyJ2Vf0Grca63sH9",2006985,1131,FALSE,0,"{'GK_2': '1', 'GK_2_slider': '69'}",6358,"GK_2","The radius of the Earth is approximately...","4000 miles","200 miles",1,"anchor",1,69,1,"GK",0.38
"0rPBLR1xdsyOmMITDY2heezzJ9","oz8p8KZ7v1NyJ2Vf0Grca63sH9",2014721,1133,FALSE,1,"{'IQ_3': '2', 'IQ_3_slider': '50'}",5903,"IQ_3","What is the population of Synomle?","More than 10,000","Less than 10,000",3,"anchor",0,50,2,"IQ",0
"0rPBLR1xdsyOmMITDY2heezzJ9","oz8p8KZ7v1NyJ2Vf0Grca63sH9",2024041,1135,FALSE,2,"{'GK_53': '2', 'GK_53_slider': '69'}",6975,"GK_53","The top 10 car manufacturing countries produced approximately how many new cars in 2014?","50 milion","10 million",1,"anchor",0,69,2,"GK",0.38
"0rPBLR1xdsyOmMITDY2heezzJ9","oz8p8KZ7v1NyJ2Vf0Grca63sH9",2030681,1137,FALSE,3,"{'GK_21': '2', 'GK_21_slider': '79'}",4791,"GK_21","The number of weeks in a year is approximately:","500","52",2,"anchor",1,79,2,"GK",0.58
"0rPBLR1xdsyOmMITDY2heezzJ9","oz8p8KZ7v1NyJ2Vf0Grca63sH9",2038225,1139,FALSE,4,"{'GK_55': '2', 'GK_55_slider': '89'}",6031,"GK_55","Autism has become an epidemic.","True","False",2,"anchor",1,89,2,"GK",0.78
"0rPBLR1xdsyOmMITDY2heezzJ9","oz8p8KZ7v1NyJ2Vf0Grca63sH9",2045617,1141,FALSE,5,"{'GK_36': '1', 'GK_36_slider': '70'}",5423,"GK_36","Ocean currents carry heat from the equator toward the north and south poles.","True","False",1,"anchor",1,70,1,"GK",0.4
"0rPBLR1xdsyOmMITDY2heezzJ9","oz8p8KZ7v1NyJ2Vf0Grca63sH9",2053417,1143,FALSE,6,"{'GK_86': '2', 'GK_86_slider': '79'}",6544,"GK_86","The velocity of a radio wave and a visible light wave in a vacuum are the same.","True","False",1,"anchor",0,79,2,"GK",0.58
"0rPBLR1xdsyOmMITDY2heezzJ9","oz8p8KZ7v1NyJ2Vf0Grca63sH9",2061993,1145,FALSE,7,"{'GK_90': '1', 'GK_90_slider': '99'}",6551,"GK_90","The reason we experience seasons is because the distance between the earth and sun changes.","True","False",2,"anchor",0,99,1,"GK",0.98
"0rPBLR1xdsyOmMITDY2heezzJ9","oz8p8KZ7v1NyJ2Vf0Grca63sH9",2070721,1147,FALSE,8,"{'GK_72': '2', 'GK_72_slider': '70'}",7535,"GK_72","The total number of cinema visits in USA in 2018 were approximately how much?","130 million","1.3 billion",2,"anchor",1,70,2,"GK",0.4
"0rPBLR1xdsyOmMITDY2heezzJ9","oz8p8KZ7v1NyJ2Vf0Grca63sH9",2082409,1149,FALSE,9,"{'GK_69': '1', 'GK_69_slider': '57'}",8239,"GK_69","Which is the smallest independent country?","Monaco","Vatican City",2,"anchor",0,57,1,"GK",0.14
"0rPBLR1xdsyOmMITDY2heezzJ9","oz8p8KZ7v1NyJ2Vf0Grca63sH9",2089137,1151,FALSE,10,"{'GK_63': '2', 'GK_63_slider': '70'}",5791,"GK_63","Bats are not blind.","True","False",1,"anchor",0,70,2,"GK",0.4
"0rPBLR1xdsyOmMITDY2heezzJ9","oz8p8KZ7v1NyJ2Vf0Grca63sH9",2094969,1153,FALSE,11,"{'GK_3': '1', 'GK_3_slider': '99'}",4775,"GK_3","Apples are classified as:","Fruits","Vegetables",1,"anchor",1,99,1,"GK",0.98
"0rPBLR1xdsyOmMITDY2heezzJ9","oz8p8KZ7v1NyJ2Vf0Grca63sH9",2103337,1155,FALSE,12,"{'GK_6': '1', 'GK_6_slider': '100'}",6839,"GK_6","Which of the following is found in plant cells but not animal cells?","Chloroplasts","Ribosome",1,"anchor",1,100,1,"GK",1
"0rPBLR1xdsyOmMITDY2heezzJ9","oz8p8KZ7v1NyJ2Vf0Grca63sH9",2115273,1157,FALSE,13,"{'GK_61': '2', 'GK_61_slider': '89'}",10815,"GK_61","Which comes closest in meaning to the following word? Intransigent","Transitory","Inflexible",2,"anchor",1,89,2,"GK",0.78
"0rPBLR1xdsyOmMITDY2heezzJ9","oz8p8KZ7v1NyJ2Vf0Grca63sH9",2126849,1159,FALSE,14,"{'GK_75': '1', 'GK_75_slider': '80'}",10271,"GK_75","In 2006, the status of the then planet Pluto was reduced to 'dwarf Planet' so that it was no longer officially the ninth planet in our Solar system. The reason for this was because its' gravitational force was not enough to","Maintain its regular orbit around the sun","Clear its neighbouring region of planetesimals and asteroids etc.",2,"anchor",0,80,1,"GK",0.6
"0rPBLR1xdsyOmMITDY2heezzJ9","oz8p8KZ7v1NyJ2Vf0Grca63sH9",2133089,1161,FALSE,15,"{'GK_64': '1', 'GK_64_slider': '80'}",5183,"GK_64","Human children have more bones than adults.","True","False",1,"anchor",1,80,1,"GK",0.6
"0rPBLR1xdsyOmMITDY2heezzJ9","oz8p8KZ7v1NyJ2Vf0Grca63sH9",2142577,1163,FALSE,16,"{'IQ_2': '1', 'IQ_2_slider': '60'}",8407,"IQ_2","How many sides does a Detseroid have?","More than 20","Less than 20",3,"anchor",0,60,1,"IQ",0.2
"0rPBLR1xdsyOmMITDY2heezzJ9","oz8p8KZ7v1NyJ2Vf0Grca63sH9",2154345,1165,FALSE,17,"{'IQ_6': '1', 'IQ_6_slider': '70'}",10679,"IQ_6","Resistance Configuration Theory is a psychological theory that explains:","How people avoid blame and why they do not recognize when something is their fault","Why certain people do not try new experiences",3,"anchor",0,70,1,"IQ",0.4
"0rPBLR1xdsyOmMITDY2heezzJ9","oz8p8KZ7v1NyJ2Vf0Grca63sH9",2165729,1167,FALSE,18,"{'GK_79': '2', 'GK_79_slider': '50'}",10367,"GK_79","Which one of the below is not a correct possible solution for x. | x - 9 | <  10.","-4","4",1,"anchor",0,50,2,"GK",0
"0rPBLR1xdsyOmMITDY2heezzJ9","oz8p8KZ7v1NyJ2Vf0Grca63sH9",2178017,1169,FALSE,19,"{'GK_70': '1', 'GK_70_slider': '69'}",11447,"GK_70","A man bought a car for $10,000. He sold the car once the price fell by 17%, and invested the money so that he then got back $10,000. His profit on the invested amount is approximately:","0.17","0.2",2,"anchor",0,69,1,"GK",0.38
"0rPBLR1xdsyOmMITDY2heezzJ9","oz8p8KZ7v1NyJ2Vf0Grca63sH9",2187857,1171,FALSE,20,"{'GK_14': '1', 'GK_14_slider': '70'}",8927,"GK_14","Methane, Carbon Dioxide and Water vapor in the atmosphere are all good at trapping heat from the Earth's surface","True","False",1,"anchor",1,70,1,"GK",0.4
"0rPBLR1xdsyOmMITDY2heezzJ9","oz8p8KZ7v1NyJ2Vf0Grca63sH9",2196609,1173,FALSE,21,"{'GK_42': '2', 'GK_42_slider': '70'}",7223,"GK_42","Which happened earlier in history?","Chinese issue the first paper money","European sailors begin to use the magnetic compass",1,"anchor",0,70,2,"GK",0.4
"0rPBLR1xdsyOmMITDY2heezzJ9","oz8p8KZ7v1NyJ2Vf0Grca63sH9",2202817,1175,FALSE,22,"{'GK_84': '2', 'GK_84_slider': '70'}",5351,"GK_84","How many gold medals did Michael Phelps win at the Beijing Olympics?","4","8",2,"anchor",1,70,2,"GK",0.4
"0rPBLR1xdsyOmMITDY2heezzJ9","oz8p8KZ7v1NyJ2Vf0Grca63sH9",2209585,1177,FALSE,23,"{'IQ_4': '2', 'IQ_4_slider': '69'}",5831,"IQ_4","What is the most prominent symptom of Seradot's disease?","A fever","A rash",3,"anchor",0,69,2,"IQ",0.38
"0rPBLR1xdsyOmMITDY2heezzJ9","oz8p8KZ7v1NyJ2Vf0Grca63sH9",2215705,1179,FALSE,24,"{'GK_4': '2', 'GK_4_slider': '99'}",5159,"GK_4","Which comes closest in meaning to the following word? Easy","Complex","Simple",2,"anchor",1,99,2,"GK",0.98
"0rPBLR1xdsyOmMITDY2heezzJ9","oz8p8KZ7v1NyJ2Vf0Grca63sH9",2222809,1181,FALSE,25,"{'GK_23': '1', 'GK_23_slider': '90'}",6064,"GK_23","Not all metals are attracted to magnets","True","False",1,"anchor",1,90,1,"GK",0.8
"0rPBLR1xdsyOmMITDY2heezzJ9","oz8p8KZ7v1NyJ2Vf0Grca63sH9",2228201,1183,FALSE,26,"{'GK_22': '1', 'GK_22_slider': '90'}",4455,"GK_22","China has over 1 billion mobile cellular connections","True","False",1,"anchor",1,90,1,"GK",0.8
"0rPBLR1xdsyOmMITDY2heezzJ9","oz8p8KZ7v1NyJ2Vf0Grca63sH9",2234345,1185,FALSE,27,"{'GK_80': '1', 'GK_80_slider': '80'}",5159,"GK_80","Most diamonds are not formed from coal.","True","False",1,"anchor",1,80,1,"GK",0.6
"0rPBLR1xdsyOmMITDY2heezzJ9","oz8p8KZ7v1NyJ2Vf0Grca63sH9",2242633,1187,FALSE,28,"{'IQ_5': '2', 'IQ_5_slider': '60'}",7095,"IQ_5","What is the Parlichev method?","A way of extracting minerals from soil","A way of determining the distance to a star",3,"anchor",0,60,2,"IQ",0.2
"0rPBLR1xdsyOmMITDY2heezzJ9","oz8p8KZ7v1NyJ2Vf0Grca63sH9",2251385,1189,FALSE,29,"{'IQ_1': '2', 'IQ_1_slider': '51'}",7879,"IQ_1","When did the battle of Kavkav take place?","Before 1647","After 1647",3,"anchor",0,51,2,"IQ",0.02
"1eFmEaNYZk9nhIejZ5o551waDm","sfPWC1NRcOtweXXpCKLRyW75zO",2502199,1140,FALSE,0,"{'GK_4': '2', 'GK_4_slider': '100'}",8245,"GK_4","Which comes closest in meaning to the following word? Easy","Complex","Simple",2,"anchor",1,100,2,"GK",1
"1eFmEaNYZk9nhIejZ5o551waDm","sfPWC1NRcOtweXXpCKLRyW75zO",2509872,1142,FALSE,1,"{'GK_23': '1', 'GK_23_slider': '89'}",6195,"GK_23","Not all metals are attracted to magnets","True","False",1,"anchor",1,89,1,"GK",0.78
"1eFmEaNYZk9nhIejZ5o551waDm","sfPWC1NRcOtweXXpCKLRyW75zO",2519603,1144,FALSE,2,"{'GK_64': '1', 'GK_64_slider': '80'}",8139,"GK_64","Human children have more bones than adults.","True","False",1,"anchor",1,80,1,"GK",0.6
"1eFmEaNYZk9nhIejZ5o551waDm","sfPWC1NRcOtweXXpCKLRyW75zO",2531241,1146,FALSE,3,"{'IQ_5': '2', 'IQ_5_slider': '70'}",10017,"IQ_5","What is the Parlichev method?","A way of extracting minerals from soil","A way of determining the distance to a star",3,"anchor",0,70,2,"IQ",0.4
"1eFmEaNYZk9nhIejZ5o551waDm","sfPWC1NRcOtweXXpCKLRyW75zO",2541870,1148,FALSE,4,"{'GK_61': '1', 'GK_61_slider': '80'}",9437,"GK_61","Which comes closest in meaning to the following word? Intransigent","Transitory","Inflexible",2,"anchor",0,80,1,"GK",0.6
"1eFmEaNYZk9nhIejZ5o551waDm","sfPWC1NRcOtweXXpCKLRyW75zO",2550160,1150,FALSE,5,"{'GK_36': '1', 'GK_36_slider': '70'}",6755,"GK_36","Ocean currents carry heat from the equator toward the north and south poles.","True","False",1,"anchor",1,70,1,"GK",0.4
"1eFmEaNYZk9nhIejZ5o551waDm","sfPWC1NRcOtweXXpCKLRyW75zO",2556613,1152,FALSE,6,"{'GK_84': '2', 'GK_84_slider': '90'}",5291,"GK_84","How many gold medals did Michael Phelps win at the Beijing Olympics?","4","8",2,"anchor",1,90,2,"GK",0.8
"1eFmEaNYZk9nhIejZ5o551waDm","sfPWC1NRcOtweXXpCKLRyW75zO",2572619,1154,FALSE,7,"{'GK_79': '1', 'GK_79_slider': '80'}",14779,"GK_79","Which one of the below is not a correct possible solution for x. | x - 9 | <  10.","-4","4",1,"anchor",1,80,1,"GK",0.6
"1eFmEaNYZk9nhIejZ5o551waDm","sfPWC1NRcOtweXXpCKLRyW75zO",2580328,1156,FALSE,8,"{'IQ_2': '1', 'IQ_2_slider': '79'}",6539,"IQ_2","How many sides does a Detseroid have?","More than 20","Less than 20",3,"anchor",0,79,1,"IQ",0.58
"1eFmEaNYZk9nhIejZ5o551waDm","sfPWC1NRcOtweXXpCKLRyW75zO",2587649,1158,FALSE,9,"{'GK_63': '1', 'GK_63_slider': '79'}",6137,"GK_63","Bats are not blind.","True","False",1,"anchor",1,79,1,"GK",0.58
"1eFmEaNYZk9nhIejZ5o551waDm","sfPWC1NRcOtweXXpCKLRyW75zO",2594440,1160,FALSE,10,"{'GK_22': '1', 'GK_22_slider': '90'}",5635,"GK_22","China has over 1 billion mobile cellular connections","True","False",1,"anchor",1,90,1,"GK",0.8
"1eFmEaNYZk9nhIejZ5o551waDm","sfPWC1NRcOtweXXpCKLRyW75zO",2602048,1162,FALSE,11,"{'IQ_4': '2', 'IQ_4_slider': '62'}",6203,"IQ_4","What is the most prominent symptom of Seradot's disease?","A fever","A rash",3,"anchor",0,62,2,"IQ",0.24
"1eFmEaNYZk9nhIejZ5o551waDm","sfPWC1NRcOtweXXpCKLRyW75zO",2608388,1164,FALSE,12,"{'GK_3': '1', 'GK_3_slider': '81'}",5155,"GK_3","Apples are classified as:","Fruits","Vegetables",1,"anchor",1,81,1,"GK",0.62
"1eFmEaNYZk9nhIejZ5o551waDm","sfPWC1NRcOtweXXpCKLRyW75zO",2615580,1166,FALSE,13,"{'GK_55': '1', 'GK_55_slider': '75'}",5994,"GK_55","Autism has become an epidemic.","True","False",2,"anchor",0,75,1,"GK",0.5
"1eFmEaNYZk9nhIejZ5o551waDm","sfPWC1NRcOtweXXpCKLRyW75zO",2622120,1168,FALSE,14,"{'GK_80': '1', 'GK_80_slider': '80'}",5248,"GK_80","Most diamonds are not formed from coal.","True","False",1,"anchor",1,80,1,"GK",0.6
"1eFmEaNYZk9nhIejZ5o551waDm","sfPWC1NRcOtweXXpCKLRyW75zO",2637766,1170,FALSE,15,"{'GK_70': '1', 'GK_70_slider': '69'}",14441,"GK_70","A man bought a car for $10,000. He sold the car once the price fell by 17%, and invested the money so that he then got back $10,000. His profit on the invested amount is approximately:","0.17","0.2",2,"anchor",0,69,1,"GK",0.38
"1eFmEaNYZk9nhIejZ5o551waDm","sfPWC1NRcOtweXXpCKLRyW75zO",2646794,1172,FALSE,16,"{'GK_69': '2', 'GK_69_slider': '100'}",7845,"GK_69","Which is the smallest independent country?","Monaco","Vatican City",2,"anchor",1,100,2,"GK",1
"1eFmEaNYZk9nhIejZ5o551waDm","sfPWC1NRcOtweXXpCKLRyW75zO",2654524,1174,FALSE,17,"{'GK_14': '1', 'GK_14_slider': '70'}",6575,"GK_14","Methane, Carbon Dioxide and Water vapor in the atmosphere are all good at trapping heat from the Earth's surface","True","False",1,"anchor",1,70,1,"GK",0.4
"1eFmEaNYZk9nhIejZ5o551waDm","sfPWC1NRcOtweXXpCKLRyW75zO",2663365,1176,FALSE,18,"{'GK_72': '2', 'GK_72_slider': '81'}",7456,"GK_72","The total number of cinema visits in USA in 2018 were approximately how much?","130 million","1.3 billion",2,"anchor",1,81,2,"GK",0.62
"1eFmEaNYZk9nhIejZ5o551waDm","sfPWC1NRcOtweXXpCKLRyW75zO",2680633,1178,FALSE,19,"{'GK_6': '1', 'GK_6_slider': '79'}",15661,"GK_6","Which of the following is found in plant cells but not animal cells?","Chloroplasts","Ribosome",1,"anchor",1,79,1,"GK",0.58
"1eFmEaNYZk9nhIejZ5o551waDm","sfPWC1NRcOtweXXpCKLRyW75zO",2689640,1180,FALSE,20,"{'GK_86': '2', 'GK_86_slider': '79'}",5584,"GK_86","The velocity of a radio wave and a visible light wave in a vacuum are the same.","True","False",1,"anchor",0,79,2,"GK",0.58
"1eFmEaNYZk9nhIejZ5o551waDm","sfPWC1NRcOtweXXpCKLRyW75zO",2705395,1182,FALSE,21,"{'GK_42': '1', 'GK_42_slider': '71'}",14585,"GK_42","Which happened earlier in history?","Chinese issue the first paper money","European sailors begin to use the magnetic compass",1,"anchor",1,71,1,"GK",0.42
"1eFmEaNYZk9nhIejZ5o551waDm","sfPWC1NRcOtweXXpCKLRyW75zO",2720324,1184,FALSE,22,"{'GK_75': '1', 'GK_75_slider': '80'}",13510,"GK_75","In 2006, the status of the then planet Pluto was reduced to 'dwarf Planet' so that it was no longer officially the ninth planet in our Solar system. The reason for this was because its' gravitational force was not enough to","Maintain its regular orbit around the sun","Clear its neighbouring region of planetesimals and asteroids etc.",2,"anchor",0,80,1,"GK",0.6
"1eFmEaNYZk9nhIejZ5o551waDm","sfPWC1NRcOtweXXpCKLRyW75zO",2726519,1186,FALSE,23,"{'GK_21': '2', 'GK_21_slider': '100'}",5012,"GK_21","The number of weeks in a year is approximately:","500","52",2,"anchor",1,100,2,"GK",1
"1eFmEaNYZk9nhIejZ5o551waDm","sfPWC1NRcOtweXXpCKLRyW75zO",2737234,1188,FALSE,24,"{'GK_53': '2', 'GK_53_slider': '80'}",9450,"GK_53","The top 10 car manufacturing countries produced approximately how many new cars in 2014?","50 milion","10 million",1,"anchor",0,80,2,"GK",0.6
"1eFmEaNYZk9nhIejZ5o551waDm","sfPWC1NRcOtweXXpCKLRyW75zO",2744620,1190,FALSE,25,"{'IQ_1': '2', 'IQ_1_slider': '79'}",6066,"IQ_1","When did the battle of Kavkav take place?","Before 1647","After 1647",3,"anchor",0,79,2,"IQ",0.58
"1eFmEaNYZk9nhIejZ5o551waDm","sfPWC1NRcOtweXXpCKLRyW75zO",2753921,1192,FALSE,26,"{'GK_2': '2', 'GK_2_slider': '64'}",8067,"GK_2","The radius of the Earth is approximately...","4000 miles","200 miles",1,"anchor",0,64,2,"GK",0.28
"1eFmEaNYZk9nhIejZ5o551waDm","sfPWC1NRcOtweXXpCKLRyW75zO",2760805,1194,FALSE,27,"{'GK_90': '2', 'GK_90_slider': '79'}",5837,"GK_90","The reason we experience seasons is because the distance between the earth and sun changes.","True","False",2,"anchor",1,79,2,"GK",0.58
"1eFmEaNYZk9nhIejZ5o551waDm","sfPWC1NRcOtweXXpCKLRyW75zO",2772373,1196,FALSE,28,"{'IQ_6': '2', 'IQ_6_slider': '85'}",10405,"IQ_6","Resistance Configuration Theory is a psychological theory that explains:","How people avoid blame and why they do not recognize when something is their fault","Why certain people do not try new experiences",3,"anchor",0,85,2,"IQ",0.7
"1eFmEaNYZk9nhIejZ5o551waDm","sfPWC1NRcOtweXXpCKLRyW75zO",2778130,1198,FALSE,29,"{'IQ_3': '2', 'IQ_3_slider': '63'}",4681,"IQ_3","What is the population of Synomle?","More than 10,000","Less than 10,000",3,"anchor",0,63,2,"IQ",0.26
"1qqyj3uwoGDwVUhFSx8uq9XZ2k","qTJTU6gD2FrZilbvUUlYY1MzBZ",1834991,101,TRUE,0,"{'GK_94': '1', 'GK_94_slider': '50'}",21011,"GK_94","If A is neccessary for B to occur and C is sufficient for B to occur, then it follows that if C has occured, it implies that A has also occured.","True","False",1,"aig_A",1,NA,1,"GK",NA
"1qqyj3uwoGDwVUhFSx8uq9XZ2k","qTJTU6gD2FrZilbvUUlYY1MzBZ",1857652,103,FALSE,1,"{'GK_28': '1', 'GK_28_slider': '70'}",17457,"GK_28","Greenhouse effect refers to:","Gases in the atmosphere that trap heat","Impact to the Earth's ozone layer",1,"aig_A",1,70,1,"GK",0.4
"1qqyj3uwoGDwVUhFSx8uq9XZ2k","qTJTU6gD2FrZilbvUUlYY1MzBZ",1876383,105,FALSE,2,"{'GK_46': '2', 'GK_46_slider': '100'}",17253,"GK_46","In a lake, there is a patch of lily pads. Every day, the patch doubles in size. If it takes 48 days for the patch to cover the entire lake, how long would it take for the patch to cover half of the lake? _____ days","24 days","47 days",2,"aig_A",1,100,2,"GK",1
"1qqyj3uwoGDwVUhFSx8uq9XZ2k","qTJTU6gD2FrZilbvUUlYY1MzBZ",1888531,107,FALSE,3,"{'GK_17': '1', 'GK_17_slider': '100'}",10776,"GK_17","Which happened earlier in history?","Abraham Lincoln became President of USA","George Bush became President of USA",1,"aig_A",1,100,1,"GK",1
"1qqyj3uwoGDwVUhFSx8uq9XZ2k","qTJTU6gD2FrZilbvUUlYY1MzBZ",1911078,109,TRUE,4,"{'GK_71': '2', 'GK_71_slider': '50'}",21009,"GK_71","Ocean acidification is caused by:","Chemical spills in the ocean","Absorption of carbon dioxide by the ocean",2,"aig_A",1,NA,2,"GK",NA
"1qqyj3uwoGDwVUhFSx8uq9XZ2k","qTJTU6gD2FrZilbvUUlYY1MzBZ",1921523,111,FALSE,5,"{'IQ_8': '3'}",8744,"IQ_8","What is the nutritional value of a Golgrest Fruit?","High in Protein","Low in Carbohydrates",3,"aig_A",1,NA,3,"IQ",NA
"1qqyj3uwoGDwVUhFSx8uq9XZ2k","qTJTU6gD2FrZilbvUUlYY1MzBZ",1938414,113,FALSE,6,"{'GK_39': '1', 'GK_39_slider': '50'}",13283,"GK_39","The Pacific Ocean's area is larger than all the earth's masses combined.","True","False",1,"aig_A",1,50,1,"GK",0
"1qqyj3uwoGDwVUhFSx8uq9XZ2k","qTJTU6gD2FrZilbvUUlYY1MzBZ",1953871,115,FALSE,7,"{'GK_54': '1', 'GK_54_slider': '90'}",14336,"GK_54","What was the beta (early) version of the Internet called?","ARPAnet","Intranet",1,"aig_A",1,90,1,"GK",0.8
"1qqyj3uwoGDwVUhFSx8uq9XZ2k","qTJTU6gD2FrZilbvUUlYY1MzBZ",1975975,117,TRUE,8,"{'GK_76': '1', 'GK_76_slider': '50'}",20996,"GK_76","Which two sports both have 11 members of each team playing on the field (under normal circumstances)?","Field hockey and American Football","Ice hockey & Soccer",1,"aig_A",1,NA,1,"GK",NA
"1qqyj3uwoGDwVUhFSx8uq9XZ2k","qTJTU6gD2FrZilbvUUlYY1MzBZ",1988908,119,FALSE,9,"{'GK_48': '2', 'GK_48_slider': '79'}",11611,"GK_48","All radioactivity is man-made.","True","False",2,"aig_A",1,79,2,"GK",0.58
"1qqyj3uwoGDwVUhFSx8uq9XZ2k","qTJTU6gD2FrZilbvUUlYY1MzBZ",1997350,121,FALSE,10,"{'GK_27': '1', 'GK_27_slider': '100'}",7406,"GK_27","Budapest is the capital of which county?","Hungary","Austria",1,"aig_A",1,100,1,"GK",1
"1qqyj3uwoGDwVUhFSx8uq9XZ2k","qTJTU6gD2FrZilbvUUlYY1MzBZ",2012114,123,FALSE,11,"{'GK_20': '2', 'GK_20_slider': '50'}",13616,"GK_20","Moderate earthquakes (5.0 - 5.9 on the Richter Scale) happen approximately twice a day.","True","False",1,"aig_A",0,50,2,"GK",0
"1qqyj3uwoGDwVUhFSx8uq9XZ2k","qTJTU6gD2FrZilbvUUlYY1MzBZ",2024175,125,FALSE,12,"{'GK_31': '2', 'GK_31_slider': '100'}",10930,"GK_31","Stretchiness, or the ability of an object or material to resume its normal shape after being stretched or compressed is?","Electricity","Elasticity",2,"aig_A",1,100,2,"GK",1
"1qqyj3uwoGDwVUhFSx8uq9XZ2k","qTJTU6gD2FrZilbvUUlYY1MzBZ",2038178,127,FALSE,13,"{'GK_74': '1', 'GK_74_slider': '50'}",12984,"GK_74","It is possible for water to exist in liquid form below 0 degrees C (32 degrees F)","True","False",1,"aig_A",1,50,1,"GK",0
"1qqyj3uwoGDwVUhFSx8uq9XZ2k","qTJTU6gD2FrZilbvUUlYY1MzBZ",2055110,129,FALSE,14,"{'IQ_11': '3'}",15860,"IQ_11","What does the Veklin Procedure involve?","A sequence of precise surgical incisions","A complex mathematical equation",3,"aig_A",1,NA,3,"IQ",NA
"1qqyj3uwoGDwVUhFSx8uq9XZ2k","qTJTU6gD2FrZilbvUUlYY1MzBZ",2073447,131,FALSE,15,"{'IQ_9': '1', 'IQ_9_slider': '50'}",17249,"IQ_9","What is the speed of a Blargan Horse?","Faster than a Cheetah","Slower than a Snail",3,"aig_A",0,50,1,"IQ",0
"1qqyj3uwoGDwVUhFSx8uq9XZ2k","qTJTU6gD2FrZilbvUUlYY1MzBZ",2085066,133,FALSE,16,"{'GK_85': '2', 'GK_85_slider': '50'}",10526,"GK_85","Most psychiatric therapies are based on Freud.","True","False",2,"aig_A",1,50,2,"GK",0
"1qqyj3uwoGDwVUhFSx8uq9XZ2k","qTJTU6gD2FrZilbvUUlYY1MzBZ",2097825,135,FALSE,17,"{'IQ_10': '1', 'IQ_10_slider': '50'}",11725,"IQ_10","What is the cure for Zolbrod's syndrome?","Immunotherapy","Radiation Therapy",3,"aig_A",0,50,1,"IQ",0
"1qqyj3uwoGDwVUhFSx8uq9XZ2k","qTJTU6gD2FrZilbvUUlYY1MzBZ",2117296,137,FALSE,18,"{'GK_91': '2', 'GK_91_slider': '69'}",17891,"GK_91","A ball made of solid steel will not float on water. However, when steel is used to make a boat it floats because the steel is made less dense.","True","False",2,"aig_A",1,69,2,"GK",0.38
"1qqyj3uwoGDwVUhFSx8uq9XZ2k","qTJTU6gD2FrZilbvUUlYY1MzBZ",2124246,139,FALSE,19,"{'GK_7': '1', 'GK_7_slider': '100'}",5896,"GK_7","How many points is a touchdown in American Football?","6","8",1,"aig_A",1,100,1,"GK",1
"1qqyj3uwoGDwVUhFSx8uq9XZ2k","qTJTU6gD2FrZilbvUUlYY1MzBZ",2136513,141,FALSE,20,"{'GK_35': '2', 'GK_35_slider': '90'}",10896,"GK_35","Global warming is a humanitarian initiative to slow down freezing in the North Pole.","True","False",2,"aig_A",1,90,2,"GK",0.8
"1qqyj3uwoGDwVUhFSx8uq9XZ2k","qTJTU6gD2FrZilbvUUlYY1MzBZ",2151284,143,FALSE,21,"{'GK_38': '2', 'GK_38_slider': '60'}",13865,"GK_38","Phnom penh is the capital of which country?","Vietnam","Cambodia",2,"aig_A",1,60,2,"GK",0.2
"1qqyj3uwoGDwVUhFSx8uq9XZ2k","qTJTU6gD2FrZilbvUUlYY1MzBZ",2169905,145,FALSE,22,"{'GK_25': '2', 'GK_25_slider': '70'}",17662,"GK_25","Given: Some hair is red. No red is green. Logical conclusion: Anything green cannot be hair.","True","False",2,"aig_A",1,70,2,"GK",0.4
"1qqyj3uwoGDwVUhFSx8uq9XZ2k","qTJTU6gD2FrZilbvUUlYY1MzBZ",2186179,147,FALSE,23,"{'GK_43': '2', 'GK_43_slider': '59'}",15380,"GK_43","Which happened earlier in history?","Alexander Graham Bell patents the telephone","Charles Darwin publishes 'The Origin of Species'",2,"aig_A",1,59,2,"GK",0.18
"1qqyj3uwoGDwVUhFSx8uq9XZ2k","qTJTU6gD2FrZilbvUUlYY1MzBZ",2200299,149,FALSE,24,"{'GK_49': '2', 'GK_49_slider': '50'}",13193,"GK_49","What is the length of an Olympic swimming pool?","80 meters","50 meters",2,"aig_A",1,50,2,"GK",0
"1qqyj3uwoGDwVUhFSx8uq9XZ2k","qTJTU6gD2FrZilbvUUlYY1MzBZ",2220454,151,FALSE,25,"{'IQ_7': '3'}",18833,"IQ_7","When did the Laikrev Uprising occur?","During the Renaissance","During the Industrial Revolution",3,"aig_A",1,NA,3,"IQ",NA
"1qqyj3uwoGDwVUhFSx8uq9XZ2k","qTJTU6gD2FrZilbvUUlYY1MzBZ",2232180,153,FALSE,26,"{'GK_89': '2', 'GK_89_slider': '50'}",10411,"GK_89","Humans have evolved from monkeys.","True","False",2,"aig_A",1,50,2,"GK",0
"1qqyj3uwoGDwVUhFSx8uq9XZ2k","qTJTU6gD2FrZilbvUUlYY1MzBZ",2239436,155,FALSE,27,"{'GK_11': '2', 'GK_11_slider': '100'}",6184,"GK_11","The world population is approximately:","7 million","7 billion",2,"aig_A",1,100,2,"GK",1
"1qqyj3uwoGDwVUhFSx8uq9XZ2k","qTJTU6gD2FrZilbvUUlYY1MzBZ",2257689,157,FALSE,28,"{'IQ_12': '3'}",16986,"IQ_12","How does Binoxelation Impact Theory explain the growth of crystals?","Through thermodynamics","Through quantum mechanics",3,"aig_A",1,NA,3,"IQ",NA
"1qqyj3uwoGDwVUhFSx8uq9XZ2k","qTJTU6gD2FrZilbvUUlYY1MzBZ",2279139,159,FALSE,29,"{'GK_32': '1', 'GK_32_slider': '50'}",20344,"GK_32","Which element is found in greater quantity in the Sun?","Hydrogen","Helium",1,"aig_A",1,50,1,"GK",0
"1ZpoTHwtV5ZupDMh0yOraaMYTG","nmia5NKdcaSuqrD5c2ApVcJJIK",2218897,221,FALSE,0,"{'GK_58': '1', 'GK_58_slider': '75'}",10390,"GK_58","What light-sensitive cells in the eye detect colors?","Cones","Rods",1,"aig_B",1,75,1,"GK",0.5
"1ZpoTHwtV5ZupDMh0yOraaMYTG","nmia5NKdcaSuqrD5c2ApVcJJIK",2229513,223,FALSE,1,"{'IQ_13': '3'}",9319,"IQ_13","What are the ingredients of a traditional Zibrune stew?","Magical herbs and spices","Alien sea creatures",3,"aig_B",1,NA,3,"IQ",NA
"1ZpoTHwtV5ZupDMh0yOraaMYTG","nmia5NKdcaSuqrD5c2ApVcJJIK",2240273,225,FALSE,2,"{'IQ_17': '2', 'IQ_17_slider': '60'}",9679,"IQ_17","What is the Kraghold method used for?","Predicting stock market trends","Improving memory recall",3,"aig_B",0,60,2,"IQ",0.2
"1ZpoTHwtV5ZupDMh0yOraaMYTG","nmia5NKdcaSuqrD5c2ApVcJJIK",2251385,227,FALSE,3,"{'GK_47': '1', 'GK_47_slider': '60'}",10079,"GK_47","Radioactive milk cannot be made safe by boiling it","True","False",1,"aig_B",1,60,1,"GK",0.2
"1ZpoTHwtV5ZupDMh0yOraaMYTG","nmia5NKdcaSuqrD5c2ApVcJJIK",2260721,229,FALSE,4,"{'GK_16': '2', 'GK_16_slider': '100'}",7407,"GK_16","Which happened earlier in history?","World War 1","Construction of the Egyptian pyramids",2,"aig_B",1,100,2,"GK",1
"1ZpoTHwtV5ZupDMh0yOraaMYTG","nmia5NKdcaSuqrD5c2ApVcJJIK",2273017,231,FALSE,5,"{'GK_82': '2', 'GK_82_slider': '100'}",11095,"GK_82","Plants use oxygen.","True","False",1,"aig_B",0,100,2,"GK",1
"1ZpoTHwtV5ZupDMh0yOraaMYTG","nmia5NKdcaSuqrD5c2ApVcJJIK",2288841,233,FALSE,6,"{'GK_66': '3'}",7119,"GK_66","The number of tourist arrivals per year in China (as of 2018) were approximately:","141 million","31 million",1,"aig_B",0,NA,3,"GK",NA
"1ZpoTHwtV5ZupDMh0yOraaMYTG","nmia5NKdcaSuqrD5c2ApVcJJIK",2296097,235,FALSE,7,"{'GK_60': '3'}",6311,"GK_60","Which is the only country to qualify for every FIFA World Cup (soccer) since inception in 1930?","Argentina","Brazil",2,"aig_B",0,NA,3,"GK",NA
"1ZpoTHwtV5ZupDMh0yOraaMYTG","nmia5NKdcaSuqrD5c2ApVcJJIK",2317089,237,FALSE,8,"{'GK_88': '1', 'GK_88_slider': '52'}",19287,"GK_88","People with amnesia forget all details of their earlier life.","True","False",2,"aig_B",0,52,1,"GK",0.04
"1ZpoTHwtV5ZupDMh0yOraaMYTG","nmia5NKdcaSuqrD5c2ApVcJJIK",2328969,239,FALSE,9,"{'GK_24': '1', 'GK_24_slider': '55'}",11071,"GK_24","Which comes closest in meaning to the following word: Antediluvian","Ancient","Liberal",1,"aig_B",1,55,1,"GK",0.1
"1ZpoTHwtV5ZupDMh0yOraaMYTG","nmia5NKdcaSuqrD5c2ApVcJJIK",2342553,241,FALSE,10,"{'GK_93': '1', 'GK_93_slider': '55'}",12591,"GK_93","Which country remained neutral throughout World War II?","Turkey","Afghanistan",2,"aig_B",0,55,1,"GK",0.1
"1ZpoTHwtV5ZupDMh0yOraaMYTG","nmia5NKdcaSuqrD5c2ApVcJJIK",2354457,243,FALSE,11,"{'GK_13': '1', 'GK_13_slider': '60'}",10991,"GK_13","Melting point is the temperature at which solids:","Melt in liquids","Evaporate into gases",1,"aig_B",1,60,1,"GK",0.2
"1ZpoTHwtV5ZupDMh0yOraaMYTG","nmia5NKdcaSuqrD5c2ApVcJJIK",2362929,245,FALSE,12,"{'IQ_14': '3'}",7519,"IQ_14","What's the main purpose of a Tantrigon device?","To communicate with other dimensions","To teleport through space",3,"aig_B",1,NA,3,"IQ",NA
"1ZpoTHwtV5ZupDMh0yOraaMYTG","nmia5NKdcaSuqrD5c2ApVcJJIK",2369017,247,FALSE,13,"{'GK_33': '2', 'GK_33_slider': '100'}",5311,"GK_33","Which planet in our solar system is closest to the Sun?","Pluto","Mercury",2,"aig_B",1,100,2,"GK",1
"1ZpoTHwtV5ZupDMh0yOraaMYTG","nmia5NKdcaSuqrD5c2ApVcJJIK",2374393,249,FALSE,14,"{'GK_37': '2', 'GK_37_slider': '100'}",4535,"GK_37","Which champion boxer had the birth name Cassius Clay?","Mike Tyson","Muhammed Ali",2,"aig_B",1,100,2,"GK",1
"1ZpoTHwtV5ZupDMh0yOraaMYTG","nmia5NKdcaSuqrD5c2ApVcJJIK",2382794,251,FALSE,15,"{'GK_12': '2', 'GK_12_slider': '100'}",7591,"GK_12","Psychology is used to study the life cycle of animals and plants","True","False",2,"aig_B",1,100,2,"GK",1
"1ZpoTHwtV5ZupDMh0yOraaMYTG","nmia5NKdcaSuqrD5c2ApVcJJIK",2392849,253,FALSE,16,"{'GK_87': '1', 'GK_87_slider': '70'}",9111,"GK_87","House flies have an average life span of less than 2 days.","True","False",2,"aig_B",0,70,1,"GK",0.4
"1ZpoTHwtV5ZupDMh0yOraaMYTG","nmia5NKdcaSuqrD5c2ApVcJJIK",2410625,255,FALSE,17,"{'GK_81': '2', 'GK_81_slider': '51'}",16759,"GK_81","If you are standing on the Equator, your approximate rotational speed is:","Less than 1,000 km/h","Greater than 1000 km/h",2,"aig_B",1,51,2,"GK",0.02
"1ZpoTHwtV5ZupDMh0yOraaMYTG","nmia5NKdcaSuqrD5c2ApVcJJIK",2420561,257,FALSE,18,"{'GK_57': '3'}",8967,"GK_57","Positive charges cannot flow in any conductor.","True","False",2,"aig_B",0,NA,3,"GK",NA
"1ZpoTHwtV5ZupDMh0yOraaMYTG","nmia5NKdcaSuqrD5c2ApVcJJIK",2430777,259,FALSE,19,"{'GK_29': '2', 'GK_29_slider': '60'}",9415,"GK_29","Who has a higher NBA career playoff points per game?","Kobe Bryant","Michael Jordan",2,"aig_B",1,60,2,"GK",0.2
"1ZpoTHwtV5ZupDMh0yOraaMYTG","nmia5NKdcaSuqrD5c2ApVcJJIK",2452911,261,TRUE,20,"{'GK_26': '2', 'GK_26_slider': '56'}",21004,"GK_26","Given: Any glass requires cups to exist but cups can exist without glass. One cup can support only one glass. Logical conclusion: There are more cups existing than glasses.","True","False",1,"aig_B",0,56,2,"GK",0.12
"1ZpoTHwtV5ZupDMh0yOraaMYTG","nmia5NKdcaSuqrD5c2ApVcJJIK",2464337,263,FALSE,21,"{'IQ_16': '1', 'IQ_16_slider': '55'}",10167,"IQ_16","What's the side effect of Grilpax's disease?","Change in hair color","Ability to sing beautifully",3,"aig_B",0,55,1,"IQ",0.1
"1ZpoTHwtV5ZupDMh0yOraaMYTG","nmia5NKdcaSuqrD5c2ApVcJJIK",2471017,265,FALSE,22,"{'GK_9': '2', 'GK_9_slider': '100'}",5655,"GK_9","In which continent does Germany lie?","Asia","Europe",2,"aig_B",1,100,2,"GK",1
"1ZpoTHwtV5ZupDMh0yOraaMYTG","nmia5NKdcaSuqrD5c2ApVcJJIK",2479305,267,FALSE,23,"{'IQ_15': '2', 'IQ_15_slider': '55'}",7447,"IQ_15","What's the habitat of a Rojixon bird?","Deserts","Tropical rainforests",3,"aig_B",0,55,2,"IQ",0.1
"1ZpoTHwtV5ZupDMh0yOraaMYTG","nmia5NKdcaSuqrD5c2ApVcJJIK",2489690,269,FALSE,24,"{'GK_44': '1', 'GK_44_slider': '60'}",9392,"GK_44","Which happened earlier in history?","Julius Caesar getting assassinated","Alexander the Great conquering Egypt",2,"aig_B",0,60,1,"GK",0.2
"1ZpoTHwtV5ZupDMh0yOraaMYTG","nmia5NKdcaSuqrD5c2ApVcJJIK",2495417,271,FALSE,25,"{'GK_15': '1', 'GK_15_slider': '100'}",4800,"GK_15","Which comes closest in meaning to the following word: Quick","Fast","Slow",1,"aig_B",1,100,1,"GK",1
"1ZpoTHwtV5ZupDMh0yOraaMYTG","nmia5NKdcaSuqrD5c2ApVcJJIK",2506521,273,FALSE,26,"{'IQ_18': '3'}",10295,"IQ_18","The Diflective Assumption Theory helps us understand:","How memories are stored in the brain","How emotions impact our decision making",3,"aig_B",1,NA,3,"IQ",NA
"1ZpoTHwtV5ZupDMh0yOraaMYTG","nmia5NKdcaSuqrD5c2ApVcJJIK",2516905,275,FALSE,27,"{'GK_62': '1', 'GK_62_slider': '59'}",9567,"GK_62","Which comes closest in meaning to the following word? Soporific","Pertaining to one's self","Sleep inducing",2,"aig_B",0,59,1,"GK",0.18
"1ZpoTHwtV5ZupDMh0yOraaMYTG","nmia5NKdcaSuqrD5c2ApVcJJIK",2524777,277,FALSE,28,"{'GK_41': '1', 'GK_41_slider': '60'}",7055,"GK_41","Which comes closest in meaning to the following word? Zephyr","Breeze","Tide",1,"aig_B",1,60,1,"GK",0.2
"1ZpoTHwtV5ZupDMh0yOraaMYTG","nmia5NKdcaSuqrD5c2ApVcJJIK",2530609,279,FALSE,29,"{'GK_83': '3'}",4911,"GK_83","Jupiter's largest moon Ganymede is smaller (in diameter) than the planet Mercury.","True","False",2,"aig_B",0,NA,3,"GK",NA
"2bka8DkhxCpWogLHxC1m5mlG7F","uxi1XdrxsOPl59DacHUosq9qLp",3451722,1252,FALSE,0,"{'GK_49': '1', 'GK_49_slider': '50'}",10236,"GK_49","What is the length of an Olympic swimming pool?","80 meters","50 meters",2,"aig_A",0,50,1,"GK",0
"2bka8DkhxCpWogLHxC1m5mlG7F","uxi1XdrxsOPl59DacHUosq9qLp",3464151,1254,FALSE,1,"{'IQ_9': '3'}",9643,"IQ_9","What is the speed of a Blargan Horse?","Faster than a Cheetah","Slower than a Snail",3,"aig_A",1,NA,3,"IQ",NA
"2bka8DkhxCpWogLHxC1m5mlG7F","uxi1XdrxsOPl59DacHUosq9qLp",3475868,1256,FALSE,2,"{'GK_38': '2', 'GK_38_slider': '99'}",9167,"GK_38","Phnom penh is the capital of which country?","Vietnam","Cambodia",2,"aig_A",1,99,2,"GK",0.98
"2bka8DkhxCpWogLHxC1m5mlG7F","uxi1XdrxsOPl59DacHUosq9qLp",3488586,1258,FALSE,3,"{'IQ_10': '1', 'IQ_10_slider': '70'}",9792,"IQ_10","What is the cure for Zolbrod's syndrome?","Immunotherapy","Radiation Therapy",3,"aig_A",0,70,1,"IQ",0.4
"2bka8DkhxCpWogLHxC1m5mlG7F","uxi1XdrxsOPl59DacHUosq9qLp",3496634,1260,FALSE,4,"{'GK_48': '2', 'GK_48_slider': '100'}",6363,"GK_48","All radioactivity is man-made.","True","False",2,"aig_A",1,100,2,"GK",1
"2bka8DkhxCpWogLHxC1m5mlG7F","uxi1XdrxsOPl59DacHUosq9qLp",3508708,1262,FALSE,5,"{'GK_43': '1', 'GK_43_slider': '80'}",10209,"GK_43","Which happened earlier in history?","Alexander Graham Bell patents the telephone","Charles Darwin publishes 'The Origin of Species'",2,"aig_A",0,80,1,"GK",0.6
"2bka8DkhxCpWogLHxC1m5mlG7F","uxi1XdrxsOPl59DacHUosq9qLp",3524795,1264,FALSE,6,"{'IQ_7': '2', 'IQ_7_slider': '69'}",14519,"IQ_7","When did the Laikrev Uprising occur?","During the Renaissance","During the Industrial Revolution",3,"aig_A",0,69,2,"IQ",0.38
"2bka8DkhxCpWogLHxC1m5mlG7F","uxi1XdrxsOPl59DacHUosq9qLp",3537692,1266,FALSE,7,"{'GK_54': '1', 'GK_54_slider': '100'}",11032,"GK_54","What was the beta (early) version of the Internet called?","ARPAnet","Intranet",1,"aig_A",1,100,1,"GK",1
"2bka8DkhxCpWogLHxC1m5mlG7F","uxi1XdrxsOPl59DacHUosq9qLp",3550400,1268,FALSE,8,"{'GK_32': '1', 'GK_32_slider': '100'}",10061,"GK_32","Which element is found in greater quantity in the Sun?","Hydrogen","Helium",1,"aig_A",1,100,1,"GK",1
"2bka8DkhxCpWogLHxC1m5mlG7F","uxi1XdrxsOPl59DacHUosq9qLp",3561432,1270,FALSE,9,"{'GK_94': '2', 'GK_94_slider': '70'}",8909,"GK_94","If A is neccessary for B to occur and C is sufficient for B to occur, then it follows that if C has occured, it implies that A has also occured.","True","False",1,"aig_A",0,70,2,"GK",0.4
"2bka8DkhxCpWogLHxC1m5mlG7F","uxi1XdrxsOPl59DacHUosq9qLp",3571228,1272,FALSE,10,"{'GK_85': '2', 'GK_85_slider': '100'}",8286,"GK_85","Most psychiatric therapies are based on Freud.","True","False",2,"aig_A",1,100,2,"GK",1
"2bka8DkhxCpWogLHxC1m5mlG7F","uxi1XdrxsOPl59DacHUosq9qLp",3582191,1274,FALSE,11,"{'GK_39': '1', 'GK_39_slider': '100'}",8901,"GK_39","The Pacific Ocean's area is larger than all the earth's masses combined.","True","False",1,"aig_A",1,100,1,"GK",1
"2bka8DkhxCpWogLHxC1m5mlG7F","uxi1XdrxsOPl59DacHUosq9qLp",3594949,1276,FALSE,12,"{'GK_46': '2', 'GK_46_slider': '100'}",10994,"GK_46","In a lake, there is a patch of lily pads. Every day, the patch doubles in size. If it takes 48 days for the patch to cover the entire lake, how long would it take for the patch to cover half of the lake? _____ days","24 days","47 days",2,"aig_A",1,100,2,"GK",1
"2bka8DkhxCpWogLHxC1m5mlG7F","uxi1XdrxsOPl59DacHUosq9qLp",3610153,1278,FALSE,13,"{'GK_91': '2', 'GK_91_slider': '100'}",13510,"GK_91","A ball made of solid steel will not float on water. However, when steel is used to make a boat it floats because the steel is made less dense.","True","False",2,"aig_A",1,100,2,"GK",1
"2bka8DkhxCpWogLHxC1m5mlG7F","uxi1XdrxsOPl59DacHUosq9qLp",3619979,1280,FALSE,14,"{'GK_11': '2', 'GK_11_slider': '100'}",8001,"GK_11","The world population is approximately:","7 million","7 billion",2,"aig_A",1,100,2,"GK",1
"2bka8DkhxCpWogLHxC1m5mlG7F","uxi1XdrxsOPl59DacHUosq9qLp",3633034,1282,FALSE,15,"{'IQ_12': '2', 'IQ_12_slider': '100'}",10734,"IQ_12","How does Binoxelation Impact Theory explain the growth of crystals?","Through thermodynamics","Through quantum mechanics",3,"aig_A",0,100,2,"IQ",1
"2bka8DkhxCpWogLHxC1m5mlG7F","uxi1XdrxsOPl59DacHUosq9qLp",3642122,1284,FALSE,16,"{'GK_27': '1', 'GK_27_slider': '100'}",7660,"GK_27","Budapest is the capital of which county?","Hungary","Austria",1,"aig_A",1,100,1,"GK",1
"2bka8DkhxCpWogLHxC1m5mlG7F","uxi1XdrxsOPl59DacHUosq9qLp",3652153,1286,FALSE,17,"{'GK_31': '2', 'GK_31_slider': '100'}",8126,"GK_31","Stretchiness, or the ability of an object or material to resume its normal shape after being stretched or compressed is?","Electricity","Elasticity",2,"aig_A",1,100,2,"GK",1
"2bka8DkhxCpWogLHxC1m5mlG7F","uxi1XdrxsOPl59DacHUosq9qLp",3661977,1288,FALSE,18,"{'GK_71': '2', 'GK_71_slider': '100'}",8077,"GK_71","Ocean acidification is caused by:","Chemical spills in the ocean","Absorption of carbon dioxide by the ocean",2,"aig_A",1,100,2,"GK",1
"2bka8DkhxCpWogLHxC1m5mlG7F","uxi1XdrxsOPl59DacHUosq9qLp",3672256,1290,FALSE,19,"{'GK_74': '2', 'GK_74_slider': '100'}",8690,"GK_74","It is possible for water to exist in liquid form below 0 degrees C (32 degrees F)","True","False",1,"aig_A",0,100,2,"GK",1
"2bka8DkhxCpWogLHxC1m5mlG7F","uxi1XdrxsOPl59DacHUosq9qLp",3682089,1292,FALSE,20,"{'GK_17': '1', 'GK_17_slider': '100'}",8542,"GK_17","Which happened earlier in history?","Abraham Lincoln became President of USA","George Bush became President of USA",1,"aig_A",1,100,1,"GK",1
"2bka8DkhxCpWogLHxC1m5mlG7F","uxi1XdrxsOPl59DacHUosq9qLp",3700637,1294,FALSE,21,"{'GK_76': '1', 'GK_76_slider': '100'}",16980,"GK_76","Which two sports both have 11 members of each team playing on the field (under normal circumstances)?","Field hockey and American Football","Ice hockey & Soccer",1,"aig_A",1,100,1,"GK",1
"2bka8DkhxCpWogLHxC1m5mlG7F","uxi1XdrxsOPl59DacHUosq9qLp",3713972,1296,FALSE,22,"{'GK_28': '1', 'GK_28_slider': '100'}",11596,"GK_28","Greenhouse effect refers to:","Gases in the atmosphere that trap heat","Impact to the Earth's ozone layer",1,"aig_A",1,100,1,"GK",1
"2bka8DkhxCpWogLHxC1m5mlG7F","uxi1XdrxsOPl59DacHUosq9qLp",3724917,1298,FALSE,23,"{'IQ_8': '2', 'IQ_8_slider': '100'}",9437,"IQ_8","What is the nutritional value of a Golgrest Fruit?","High in Protein","Low in Carbohydrates",3,"aig_A",0,100,2,"IQ",1
"2bka8DkhxCpWogLHxC1m5mlG7F","uxi1XdrxsOPl59DacHUosq9qLp",3734107,1300,FALSE,24,"{'GK_89': '1', 'GK_89_slider': '100'}",7691,"GK_89","Humans have evolved from monkeys.","True","False",2,"aig_A",0,100,1,"GK",1
"2bka8DkhxCpWogLHxC1m5mlG7F","uxi1XdrxsOPl59DacHUosq9qLp",3744981,1302,FALSE,25,"{'GK_20': '1', 'GK_20_slider': '100'}",8721,"GK_20","Moderate earthquakes (5.0 - 5.9 on the Richter Scale) happen approximately twice a day.","True","False",1,"aig_A",1,100,1,"GK",1
"2bka8DkhxCpWogLHxC1m5mlG7F","uxi1XdrxsOPl59DacHUosq9qLp",3753697,1304,FALSE,26,"{'GK_7': '1', 'GK_7_slider': '100'}",6909,"GK_7","How many points is a touchdown in American Football?","6","8",1,"aig_A",1,100,1,"GK",1
"2bka8DkhxCpWogLHxC1m5mlG7F","uxi1XdrxsOPl59DacHUosq9qLp",3764275,1306,FALSE,27,"{'IQ_11': '2', 'IQ_11_slider': '100'}",8713,"IQ_11","What does the Veklin Procedure involve?","A sequence of precise surgical incisions","A complex mathematical equation",3,"aig_A",0,100,2,"IQ",1
"2bka8DkhxCpWogLHxC1m5mlG7F","uxi1XdrxsOPl59DacHUosq9qLp",3774864,1308,FALSE,28,"{'GK_35': '2', 'GK_35_slider': '100'}",9139,"GK_35","Global warming is a humanitarian initiative to slow down freezing in the North Pole.","True","False",2,"aig_A",1,100,2,"GK",1
"2bka8DkhxCpWogLHxC1m5mlG7F","uxi1XdrxsOPl59DacHUosq9qLp",3789241,1310,FALSE,29,"{'GK_25': '2', 'GK_25_slider': '100'}",12204,"GK_25","Given: Some hair is red. No red is green. Logical conclusion: Anything green cannot be hair.","True","False",2,"aig_A",1,100,2,"GK",1
"2DDDzsG8TZgsUGgonnc1gPVe8d","xAzbjDcLqbKzQzkpWLiIaXdNLE",4015089,782,FALSE,0,"{'GK_16': '2', 'GK_16_slider': '100'}",8789,"GK_16","Which happened earlier in history?","World War 1","Construction of the Egyptian pyramids",2,"aig_B",1,100,2,"GK",1
"2DDDzsG8TZgsUGgonnc1gPVe8d","xAzbjDcLqbKzQzkpWLiIaXdNLE",4024039,784,FALSE,1,"{'GK_47': '1', 'GK_47_slider': '100'}",7144,"GK_47","Radioactive milk cannot be made safe by boiling it","True","False",1,"aig_B",1,100,1,"GK",1
"2DDDzsG8TZgsUGgonnc1gPVe8d","xAzbjDcLqbKzQzkpWLiIaXdNLE",4034699,786,FALSE,2,"{'IQ_16': '1', 'IQ_16_slider': '80'}",9244,"IQ_16","What's the side effect of Grilpax's disease?","Change in hair color","Ability to sing beautifully",3,"aig_B",0,80,1,"IQ",0.6
"2DDDzsG8TZgsUGgonnc1gPVe8d","xAzbjDcLqbKzQzkpWLiIaXdNLE",4045873,788,FALSE,3,"{'GK_41': '1', 'GK_41_slider': '100'}",9537,"GK_41","Which comes closest in meaning to the following word? Zephyr","Breeze","Tide",1,"aig_B",1,100,1,"GK",1
"2DDDzsG8TZgsUGgonnc1gPVe8d","xAzbjDcLqbKzQzkpWLiIaXdNLE",4054701,790,FALSE,4,"{'GK_9': '2', 'GK_9_slider': '100'}",7402,"GK_9","In which continent does Germany lie?","Asia","Europe",2,"aig_B",1,100,2,"GK",1
"2DDDzsG8TZgsUGgonnc1gPVe8d","xAzbjDcLqbKzQzkpWLiIaXdNLE",4065001,792,FALSE,5,"{'GK_87': '1', 'GK_87_slider': '100'}",8137,"GK_87","House flies have an average life span of less than 2 days.","True","False",2,"aig_B",0,100,1,"GK",1
"2DDDzsG8TZgsUGgonnc1gPVe8d","xAzbjDcLqbKzQzkpWLiIaXdNLE",4078389,794,FALSE,6,"{'GK_29': '1', 'GK_29_slider': '70'}",11878,"GK_29","Who has a higher NBA career playoff points per game?","Kobe Bryant","Michael Jordan",2,"aig_B",0,70,1,"GK",0.4
"2DDDzsG8TZgsUGgonnc1gPVe8d","xAzbjDcLqbKzQzkpWLiIaXdNLE",4088167,796,FALSE,7,"{'GK_82': '2', 'GK_82_slider': '100'}",8503,"GK_82","Plants use oxygen.","True","False",1,"aig_B",0,100,2,"GK",1
"2DDDzsG8TZgsUGgonnc1gPVe8d","xAzbjDcLqbKzQzkpWLiIaXdNLE",4100893,798,FALSE,8,"{'GK_81': '1', 'GK_81_slider': '100'}",11200,"GK_81","If you are standing on the Equator, your approximate rotational speed is:","Less than 1,000 km/h","Greater than 1000 km/h",2,"aig_B",0,100,1,"GK",1
"2DDDzsG8TZgsUGgonnc1gPVe8d","xAzbjDcLqbKzQzkpWLiIaXdNLE",4112575,800,FALSE,9,"{'GK_13': '1', 'GK_13_slider': '100'}",10274,"GK_13","Melting point is the temperature at which solids:","Melt in liquids","Evaporate into gases",1,"aig_B",1,100,1,"GK",1
"2DDDzsG8TZgsUGgonnc1gPVe8d","xAzbjDcLqbKzQzkpWLiIaXdNLE",4123789,802,FALSE,10,"{'GK_58': '1', 'GK_58_slider': '100'}",9509,"GK_58","What light-sensitive cells in the eye detect colors?","Cones","Rods",1,"aig_B",1,100,1,"GK",1
"2DDDzsG8TZgsUGgonnc1gPVe8d","xAzbjDcLqbKzQzkpWLiIaXdNLE",4134293,804,FALSE,11,"{'IQ_15': '1', 'IQ_15_slider': '69'}",8884,"IQ_15","What's the habitat of a Rojixon bird?","Deserts","Tropical rainforests",3,"aig_B",0,69,1,"IQ",0.38
"2DDDzsG8TZgsUGgonnc1gPVe8d","xAzbjDcLqbKzQzkpWLiIaXdNLE",4147539,806,FALSE,12,"{'IQ_13': '1', 'IQ_13_slider': '72'}",11974,"IQ_13","What are the ingredients of a traditional Zibrune stew?","Magical herbs and spices","Alien sea creatures",3,"aig_B",0,72,1,"IQ",0.44
"2DDDzsG8TZgsUGgonnc1gPVe8d","xAzbjDcLqbKzQzkpWLiIaXdNLE",4159291,808,FALSE,13,"{'IQ_18': '2', 'IQ_18_slider': '70'}",10645,"IQ_18","The Diflective Assumption Theory helps us understand:","How memories are stored in the brain","How emotions impact our decision making",3,"aig_B",0,70,2,"IQ",0.4
"2DDDzsG8TZgsUGgonnc1gPVe8d","xAzbjDcLqbKzQzkpWLiIaXdNLE",4168257,810,FALSE,14,"{'GK_37': '2', 'GK_37_slider': '100'}",7808,"GK_37","Which champion boxer had the birth name Cassius Clay?","Mike Tyson","Muhammed Ali",2,"aig_B",1,100,2,"GK",1
"2DDDzsG8TZgsUGgonnc1gPVe8d","xAzbjDcLqbKzQzkpWLiIaXdNLE",4177401,812,FALSE,15,"{'GK_33': '2', 'GK_33_slider': '100'}",6776,"GK_33","Which planet in our solar system is closest to the Sun?","Pluto","Mercury",2,"aig_B",1,100,2,"GK",1
"2DDDzsG8TZgsUGgonnc1gPVe8d","xAzbjDcLqbKzQzkpWLiIaXdNLE",4191103,814,FALSE,16,"{'GK_24': '2', 'GK_24_slider': '100'}",9524,"GK_24","Which comes closest in meaning to the following word: Antediluvian","Ancient","Liberal",1,"aig_B",0,100,2,"GK",1
"2DDDzsG8TZgsUGgonnc1gPVe8d","xAzbjDcLqbKzQzkpWLiIaXdNLE",4198554,816,FALSE,17,"{'GK_57': '2', 'GK_57_slider': '73'}",6247,"GK_57","Positive charges cannot flow in any conductor.","True","False",2,"aig_B",1,73,2,"GK",0.46
"2DDDzsG8TZgsUGgonnc1gPVe8d","xAzbjDcLqbKzQzkpWLiIaXdNLE",4209640,818,FALSE,18,"{'GK_62': '1', 'GK_62_slider': '64'}",9920,"GK_62","Which comes closest in meaning to the following word? Soporific","Pertaining to one's self","Sleep inducing",2,"aig_B",0,64,1,"GK",0.28
"2DDDzsG8TZgsUGgonnc1gPVe8d","xAzbjDcLqbKzQzkpWLiIaXdNLE",4218249,820,FALSE,19,"{'GK_15': '1', 'GK_15_slider': '100'}",7403,"GK_15","Which comes closest in meaning to the following word: Quick","Fast","Slow",1,"aig_B",1,100,1,"GK",1
"2DDDzsG8TZgsUGgonnc1gPVe8d","xAzbjDcLqbKzQzkpWLiIaXdNLE",4228584,822,FALSE,20,"{'GK_44': '2', 'GK_44_slider': '80'}",9031,"GK_44","Which happened earlier in history?","Julius Caesar getting assassinated","Alexander the Great conquering Egypt",2,"aig_B",1,80,2,"GK",0.6
"2DDDzsG8TZgsUGgonnc1gPVe8d","xAzbjDcLqbKzQzkpWLiIaXdNLE",4237520,824,FALSE,21,"{'GK_66': '1', 'GK_66_slider': '80'}",7642,"GK_66","The number of tourist arrivals per year in China (as of 2018) were approximately:","141 million","31 million",1,"aig_B",1,80,1,"GK",0.6
"2DDDzsG8TZgsUGgonnc1gPVe8d","xAzbjDcLqbKzQzkpWLiIaXdNLE",4248708,826,FALSE,22,"{'GK_83': '1', 'GK_83_slider': '79'}",9760,"GK_83","Jupiter's largest moon Ganymede is smaller (in diameter) than the planet Mercury.","True","False",2,"aig_B",0,79,1,"GK",0.58
"2DDDzsG8TZgsUGgonnc1gPVe8d","xAzbjDcLqbKzQzkpWLiIaXdNLE",4258132,828,FALSE,23,"{'IQ_14': '1', 'IQ_14_slider': '80'}",8365,"IQ_14","What's the main purpose of a Tantrigon device?","To communicate with other dimensions","To teleport through space",3,"aig_B",0,80,1,"IQ",0.6
"2DDDzsG8TZgsUGgonnc1gPVe8d","xAzbjDcLqbKzQzkpWLiIaXdNLE",4268593,830,FALSE,24,"{'IQ_17': '1', 'IQ_17_slider': '80'}",9207,"IQ_17","What is the Kraghold method used for?","Predicting stock market trends","Improving memory recall",3,"aig_B",0,80,1,"IQ",0.6
"2DDDzsG8TZgsUGgonnc1gPVe8d","xAzbjDcLqbKzQzkpWLiIaXdNLE",4290884,832,TRUE,25,"{'GK_26': '2', 'GK_26_slider': '50'}",21001,"GK_26","Given: Any glass requires cups to exist but cups can exist without glass. One cup can support only one glass. Logical conclusion: There are more cups existing than glasses.","True","False",1,"aig_B",0,NA,2,"GK",NA
"2DDDzsG8TZgsUGgonnc1gPVe8d","xAzbjDcLqbKzQzkpWLiIaXdNLE",4299340,834,FALSE,26,"{'GK_88': '2', 'GK_88_slider': '80'}",7315,"GK_88","People with amnesia forget all details of their earlier life.","True","False",2,"aig_B",1,80,2,"GK",0.6
"2DDDzsG8TZgsUGgonnc1gPVe8d","xAzbjDcLqbKzQzkpWLiIaXdNLE",4309764,836,FALSE,27,"{'GK_60': '1', 'GK_60_slider': '77'}",9071,"GK_60","Which is the only country to qualify for every FIFA World Cup (soccer) since inception in 1930?","Argentina","Brazil",2,"aig_B",0,77,1,"GK",0.54
"2DDDzsG8TZgsUGgonnc1gPVe8d","xAzbjDcLqbKzQzkpWLiIaXdNLE",4320096,838,FALSE,28,"{'GK_12': '2', 'GK_12_slider': '100'}",9212,"GK_12","Psychology is used to study the life cycle of animals and plants","True","False",2,"aig_B",1,100,2,"GK",1
"2DDDzsG8TZgsUGgonnc1gPVe8d","xAzbjDcLqbKzQzkpWLiIaXdNLE",4332684,840,FALSE,29,"{'GK_93': '1', 'GK_93_slider': '100'}",10095,"GK_93","Which country remained neutral throughout World War II?","Turkey","Afghanistan",2,"aig_B",0,100,1,"GK",1
"2fpXdYtjQfN3Qk8xQsh2fxhxut","MPbZok7UGutAFNPAGSo43Zyode",3115009,699,FALSE,0,"{'GK_85': '2', 'GK_85_slider': '79'}",4550,"GK_85","Most psychiatric therapies are based on Freud.","True","False",2,"aig_A",1,79,2,"GK",0.58
"2fpXdYtjQfN3Qk8xQsh2fxhxut","MPbZok7UGutAFNPAGSo43Zyode",3119355,701,FALSE,1,"{'GK_54': '3'}",3411,"GK_54","What was the beta (early) version of the Internet called?","ARPAnet","Intranet",1,"aig_A",0,NA,3,"GK",NA
"2fpXdYtjQfN3Qk8xQsh2fxhxut","MPbZok7UGutAFNPAGSo43Zyode",3125925,703,FALSE,2,"{'GK_49': '2', 'GK_49_slider': '79'}",5678,"GK_49","What is the length of an Olympic swimming pool?","80 meters","50 meters",2,"aig_A",1,79,2,"GK",0.58
"2fpXdYtjQfN3Qk8xQsh2fxhxut","MPbZok7UGutAFNPAGSo43Zyode",3131517,705,FALSE,3,"{'GK_38': '3'}",4649,"GK_38","Phnom penh is the capital of which country?","Vietnam","Cambodia",2,"aig_A",0,NA,3,"GK",NA
"2fpXdYtjQfN3Qk8xQsh2fxhxut","MPbZok7UGutAFNPAGSo43Zyode",3140459,707,FALSE,4,"{'GK_71': '2', 'GK_71_slider': '50'}",7909,"GK_71","Ocean acidification is caused by:","Chemical spills in the ocean","Absorption of carbon dioxide by the ocean",2,"aig_A",1,50,2,"GK",0
"2fpXdYtjQfN3Qk8xQsh2fxhxut","MPbZok7UGutAFNPAGSo43Zyode",3146002,709,FALSE,5,"{'GK_17': '1', 'GK_17_slider': '100'}",4585,"GK_17","Which happened earlier in history?","Abraham Lincoln became President of USA","George Bush became President of USA",1,"aig_A",1,100,1,"GK",1
"2fpXdYtjQfN3Qk8xQsh2fxhxut","MPbZok7UGutAFNPAGSo43Zyode",3152533,711,FALSE,6,"{'GK_31': '2', 'GK_31_slider': '80'}",5623,"GK_31","Stretchiness, or the ability of an object or material to resume its normal shape after being stretched or compressed is?","Electricity","Elasticity",2,"aig_A",1,80,2,"GK",0.6
"2fpXdYtjQfN3Qk8xQsh2fxhxut","MPbZok7UGutAFNPAGSo43Zyode",3157722,713,FALSE,7,"{'GK_7': '1', 'GK_7_slider': '90'}",4376,"GK_7","How many points is a touchdown in American Football?","6","8",1,"aig_A",1,90,1,"GK",0.8
"2fpXdYtjQfN3Qk8xQsh2fxhxut","MPbZok7UGutAFNPAGSo43Zyode",3163835,715,FALSE,8,"{'GK_35': '2', 'GK_35_slider': '99'}",5275,"GK_35","Global warming is a humanitarian initiative to slow down freezing in the North Pole.","True","False",2,"aig_A",1,99,2,"GK",0.98
"2fpXdYtjQfN3Qk8xQsh2fxhxut","MPbZok7UGutAFNPAGSo43Zyode",3169465,717,FALSE,9,"{'GK_74': '2', 'GK_74_slider': '79'}",4569,"GK_74","It is possible for water to exist in liquid form below 0 degrees C (32 degrees F)","True","False",1,"aig_A",0,79,2,"GK",0.58
"2fpXdYtjQfN3Qk8xQsh2fxhxut","MPbZok7UGutAFNPAGSo43Zyode",3175787,719,FALSE,10,"{'GK_32': '1', 'GK_32_slider': '60'}",5564,"GK_32","Which element is found in greater quantity in the Sun?","Hydrogen","Helium",1,"aig_A",1,60,1,"GK",0.2
"2fpXdYtjQfN3Qk8xQsh2fxhxut","MPbZok7UGutAFNPAGSo43Zyode",3182519,721,FALSE,11,"{'GK_20': '1', 'GK_20_slider': '59'}",5926,"GK_20","Moderate earthquakes (5.0 - 5.9 on the Richter Scale) happen approximately twice a day.","True","False",1,"aig_A",1,59,1,"GK",0.18
"2fpXdYtjQfN3Qk8xQsh2fxhxut","MPbZok7UGutAFNPAGSo43Zyode",3187298,723,FALSE,12,"{'GK_27': '1', 'GK_27_slider': '90'}",3829,"GK_27","Budapest is the capital of which county?","Hungary","Austria",1,"aig_A",1,90,1,"GK",0.8
"2fpXdYtjQfN3Qk8xQsh2fxhxut","MPbZok7UGutAFNPAGSo43Zyode",3194433,725,FALSE,13,"{'GK_76': '1', 'GK_76_slider': '80'}",6241,"GK_76","Which two sports both have 11 members of each team playing on the field (under normal circumstances)?","Field hockey and American Football","Ice hockey & Soccer",1,"aig_A",1,80,1,"GK",0.6
"2fpXdYtjQfN3Qk8xQsh2fxhxut","MPbZok7UGutAFNPAGSo43Zyode",3201292,727,FALSE,14,"{'GK_39': '1', 'GK_39_slider': '60'}",6007,"GK_39","The Pacific Ocean's area is larger than all the earth's masses combined.","True","False",1,"aig_A",1,60,1,"GK",0.2
"2fpXdYtjQfN3Qk8xQsh2fxhxut","MPbZok7UGutAFNPAGSo43Zyode",3208555,729,FALSE,15,"{'GK_46': '2', 'GK_46_slider': '79'}",6250,"GK_46","In a lake, there is a patch of lily pads. Every day, the patch doubles in size. If it takes 48 days for the patch to cover the entire lake, how long would it take for the patch to cover half of the lake? _____ days","24 days","47 days",2,"aig_A",1,79,2,"GK",0.58
"2fpXdYtjQfN3Qk8xQsh2fxhxut","MPbZok7UGutAFNPAGSo43Zyode",3214181,731,FALSE,16,"{'GK_89': '1', 'GK_89_slider': '70'}",4322,"GK_89","Humans have evolved from monkeys.","True","False",2,"aig_A",0,70,1,"GK",0.4
"2fpXdYtjQfN3Qk8xQsh2fxhxut","MPbZok7UGutAFNPAGSo43Zyode",3224660,733,FALSE,17,"{'GK_28': '1', 'GK_28_slider': '69'}",9618,"GK_28","Greenhouse effect refers to:","Gases in the atmosphere that trap heat","Impact to the Earth's ozone layer",1,"aig_A",1,69,1,"GK",0.38
"2fpXdYtjQfN3Qk8xQsh2fxhxut","MPbZok7UGutAFNPAGSo43Zyode",3229683,735,FALSE,18,"{'IQ_12': '3'}",4201,"IQ_12","How does Binoxelation Impact Theory explain the growth of crystals?","Through thermodynamics","Through quantum mechanics",3,"aig_A",1,NA,3,"IQ",NA
"2fpXdYtjQfN3Qk8xQsh2fxhxut","MPbZok7UGutAFNPAGSo43Zyode",3235572,737,FALSE,19,"{'IQ_9': '3'}",4955,"IQ_9","What is the speed of a Blargan Horse?","Faster than a Cheetah","Slower than a Snail",3,"aig_A",1,NA,3,"IQ",NA
"2fpXdYtjQfN3Qk8xQsh2fxhxut","MPbZok7UGutAFNPAGSo43Zyode",3245975,739,FALSE,20,"{'GK_94': '2', 'GK_94_slider': '69'}",9502,"GK_94","If A is neccessary for B to occur and C is sufficient for B to occur, then it follows that if C has occured, it implies that A has also occured.","True","False",1,"aig_A",0,69,2,"GK",0.38
"2fpXdYtjQfN3Qk8xQsh2fxhxut","MPbZok7UGutAFNPAGSo43Zyode",3250168,741,FALSE,21,"{'IQ_10': '3'}",3412,"IQ_10","What is the cure for Zolbrod's syndrome?","Immunotherapy","Radiation Therapy",3,"aig_A",1,NA,3,"IQ",NA
"2fpXdYtjQfN3Qk8xQsh2fxhxut","MPbZok7UGutAFNPAGSo43Zyode",3266756,743,FALSE,22,"{'GK_91': '2', 'GK_91_slider': '70'}",15606,"GK_91","A ball made of solid steel will not float on water. However, when steel is used to make a boat it floats because the steel is made less dense.","True","False",2,"aig_A",1,70,2,"GK",0.4
"2fpXdYtjQfN3Qk8xQsh2fxhxut","MPbZok7UGutAFNPAGSo43Zyode",3271318,745,FALSE,23,"{'GK_48': '2', 'GK_48_slider': '70'}",3700,"GK_48","All radioactivity is man-made.","True","False",2,"aig_A",1,70,2,"GK",0.4
"2fpXdYtjQfN3Qk8xQsh2fxhxut","MPbZok7UGutAFNPAGSo43Zyode",3278629,747,FALSE,24,"{'GK_43': '1', 'GK_43_slider': '70'}",6552,"GK_43","Which happened earlier in history?","Alexander Graham Bell patents the telephone","Charles Darwin publishes 'The Origin of Species'",2,"aig_A",0,70,1,"GK",0.4
"2fpXdYtjQfN3Qk8xQsh2fxhxut","MPbZok7UGutAFNPAGSo43Zyode",3282757,749,FALSE,25,"{'IQ_11': '3'}",3202,"IQ_11","What does the Veklin Procedure involve?","A sequence of precise surgical incisions","A complex mathematical equation",3,"aig_A",1,NA,3,"IQ",NA
"2fpXdYtjQfN3Qk8xQsh2fxhxut","MPbZok7UGutAFNPAGSo43Zyode",3294479,751,FALSE,26,"{'GK_25': '2', 'GK_25_slider': '70'}",10827,"GK_25","Given: Some hair is red. No red is green. Logical conclusion: Anything green cannot be hair.","True","False",2,"aig_A",1,70,2,"GK",0.4
"2fpXdYtjQfN3Qk8xQsh2fxhxut","MPbZok7UGutAFNPAGSo43Zyode",3299379,753,FALSE,27,"{'GK_11': '2', 'GK_11_slider': '80'}",3573,"GK_11","The world population is approximately:","7 million","7 billion",2,"aig_A",1,80,2,"GK",0.6
"2fpXdYtjQfN3Qk8xQsh2fxhxut","MPbZok7UGutAFNPAGSo43Zyode",3303597,755,FALSE,28,"{'IQ_8': '3'}",3453,"IQ_8","What is the nutritional value of a Golgrest Fruit?","High in Protein","Low in Carbohydrates",3,"aig_A",1,NA,3,"IQ",NA
"2fpXdYtjQfN3Qk8xQsh2fxhxut","MPbZok7UGutAFNPAGSo43Zyode",3309114,757,FALSE,29,"{'IQ_7': '3'}",4343,"IQ_7","When did the Laikrev Uprising occur?","During the Renaissance","During the Industrial Revolution",3,"aig_A",1,NA,3,"IQ",NA
"2HP5i426Yn85eYrxkfzNiY2Hnh","nLt4rTCoNZZyMvbMidnvaiSgGx",24485,14,FALSE,0,"{'GK_82': '2', 'GK_82_slider': '100'}",7526,"GK_82","Plants use oxygen.","True","False",1,"aig_B",0,100,2,"GK",1
"2HP5i426Yn85eYrxkfzNiY2Hnh","nLt4rTCoNZZyMvbMidnvaiSgGx",49483,16,FALSE,1,"{'IQ_17': '2', 'IQ_17_slider': '69'}",20237,"IQ_17","What is the Kraghold method used for?","Predicting stock market trends","Improving memory recall",3,"aig_B",0,69,2,"IQ",0.38
"2HP5i426Yn85eYrxkfzNiY2Hnh","nLt4rTCoNZZyMvbMidnvaiSgGx",58981,18,FALSE,2,"{'GK_16': '2', 'GK_16_slider': '80'}",6021,"GK_16","Which happened earlier in history?","World War 1","Construction of the Egyptian pyramids",2,"aig_B",1,80,2,"GK",0.6
"2HP5i426Yn85eYrxkfzNiY2Hnh","nLt4rTCoNZZyMvbMidnvaiSgGx",73819,20,FALSE,3,"{'GK_47': '1', 'GK_47_slider': '50'}",12249,"GK_47","Radioactive milk cannot be made safe by boiling it","True","False",1,"aig_B",1,50,1,"GK",0
"2HP5i426Yn85eYrxkfzNiY2Hnh","nLt4rTCoNZZyMvbMidnvaiSgGx",82349,22,FALSE,4,"{'GK_87': '1', 'GK_87_slider': '50'}",6711,"GK_87","House flies have an average life span of less than 2 days.","True","False",2,"aig_B",0,50,1,"GK",0
"2HP5i426Yn85eYrxkfzNiY2Hnh","nLt4rTCoNZZyMvbMidnvaiSgGx",90535,24,FALSE,5,"{'GK_33': '2', 'GK_33_slider': '100'}",6641,"GK_33","Which planet in our solar system is closest to the Sun?","Pluto","Mercury",2,"aig_B",1,100,2,"GK",1
"2HP5i426Yn85eYrxkfzNiY2Hnh","nLt4rTCoNZZyMvbMidnvaiSgGx",110577,26,FALSE,6,"{'GK_62': '2', 'GK_62_slider': '100'}",18589,"GK_62","Which comes closest in meaning to the following word? Soporific","Pertaining to one's self","Sleep inducing",2,"aig_B",1,100,2,"GK",1
"2HP5i426Yn85eYrxkfzNiY2Hnh","nLt4rTCoNZZyMvbMidnvaiSgGx",120420,28,FALSE,7,"{'IQ_16': '1', 'IQ_16_slider': '60'}",7940,"IQ_16","What's the side effect of Grilpax's disease?","Change in hair color","Ability to sing beautifully",3,"aig_B",0,60,1,"IQ",0.2
"2HP5i426Yn85eYrxkfzNiY2Hnh","nLt4rTCoNZZyMvbMidnvaiSgGx",148108,30,TRUE,8,"{'GK_26': '2', 'GK_26_slider': '50'}",21002,"GK_26","Given: Any glass requires cups to exist but cups can exist without glass. One cup can support only one glass. Logical conclusion: There are more cups existing than glasses.","True","False",1,"aig_B",0,NA,2,"GK",NA
"2HP5i426Yn85eYrxkfzNiY2Hnh","nLt4rTCoNZZyMvbMidnvaiSgGx",158583,32,FALSE,9,"{'GK_57': '1', 'GK_57_slider': '50'}",8617,"GK_57","Positive charges cannot flow in any conductor.","True","False",2,"aig_B",0,50,1,"GK",0
"2HP5i426Yn85eYrxkfzNiY2Hnh","nLt4rTCoNZZyMvbMidnvaiSgGx",169245,34,FALSE,10,"{'GK_58': '1', 'GK_58_slider': '50'}",8685,"GK_58","What light-sensitive cells in the eye detect colors?","Cones","Rods",1,"aig_B",1,50,1,"GK",0
"2HP5i426Yn85eYrxkfzNiY2Hnh","nLt4rTCoNZZyMvbMidnvaiSgGx",176713,36,FALSE,11,"{'GK_15': '1', 'GK_15_slider': '100'}",5893,"GK_15","Which comes closest in meaning to the following word: Quick","Fast","Slow",1,"aig_B",1,100,1,"GK",1
"2HP5i426Yn85eYrxkfzNiY2Hnh","nLt4rTCoNZZyMvbMidnvaiSgGx",187762,38,FALSE,12,"{'GK_37': '2', 'GK_37_slider': '100'}",9326,"GK_37","Which champion boxer had the birth name Cassius Clay?","Mike Tyson","Muhammed Ali",2,"aig_B",1,100,2,"GK",1
"2HP5i426Yn85eYrxkfzNiY2Hnh","nLt4rTCoNZZyMvbMidnvaiSgGx",203280,40,FALSE,13,"{'IQ_18': '2', 'IQ_18_slider': '60'}",13587,"IQ_18","The Diflective Assumption Theory helps us understand:","How memories are stored in the brain","How emotions impact our decision making",3,"aig_B",0,60,2,"IQ",0.2
"2HP5i426Yn85eYrxkfzNiY2Hnh","nLt4rTCoNZZyMvbMidnvaiSgGx",212943,42,FALSE,14,"{'GK_93': '2', 'GK_93_slider': '50'}",8205,"GK_93","Which country remained neutral throughout World War II?","Turkey","Afghanistan",2,"aig_B",1,50,2,"GK",0
"2HP5i426Yn85eYrxkfzNiY2Hnh","nLt4rTCoNZZyMvbMidnvaiSgGx",224532,44,FALSE,15,"{'GK_66': '1', 'GK_66_slider': '50'}",10165,"GK_66","The number of tourist arrivals per year in China (as of 2018) were approximately:","141 million","31 million",1,"aig_B",1,50,1,"GK",0
"2HP5i426Yn85eYrxkfzNiY2Hnh","nLt4rTCoNZZyMvbMidnvaiSgGx",237092,46,FALSE,16,"{'GK_24': '1', 'GK_24_slider': '50'}",11127,"GK_24","Which comes closest in meaning to the following word: Antediluvian","Ancient","Liberal",1,"aig_B",1,50,1,"GK",0
"2HP5i426Yn85eYrxkfzNiY2Hnh","nLt4rTCoNZZyMvbMidnvaiSgGx",248933,48,FALSE,17,"{'GK_13': '1', 'GK_13_slider': '50'}",10179,"GK_13","Melting point is the temperature at which solids:","Melt in liquids","Evaporate into gases",1,"aig_B",1,50,1,"GK",0
"2HP5i426Yn85eYrxkfzNiY2Hnh","nLt4rTCoNZZyMvbMidnvaiSgGx",263258,50,FALSE,18,"{'GK_88': '2', 'GK_88_slider': '80'}",13002,"GK_88","People with amnesia forget all details of their earlier life.","True","False",2,"aig_B",1,80,2,"GK",0.6
"2HP5i426Yn85eYrxkfzNiY2Hnh","nLt4rTCoNZZyMvbMidnvaiSgGx",283201,52,FALSE,19,"{'GK_83': '1', 'GK_83_slider': '50'}",17355,"GK_83","Jupiter's largest moon Ganymede is smaller (in diameter) than the planet Mercury.","True","False",2,"aig_B",0,50,1,"GK",0
"2HP5i426Yn85eYrxkfzNiY2Hnh","nLt4rTCoNZZyMvbMidnvaiSgGx",292547,54,FALSE,20,"{'IQ_13': '2', 'IQ_13_slider': '50'}",8015,"IQ_13","What are the ingredients of a traditional Zibrune stew?","Magical herbs and spices","Alien sea creatures",3,"aig_B",0,50,2,"IQ",0
"2HP5i426Yn85eYrxkfzNiY2Hnh","nLt4rTCoNZZyMvbMidnvaiSgGx",300125,56,FALSE,21,"{'IQ_15': '2', 'IQ_15_slider': '50'}",6011,"IQ_15","What's the habitat of a Rojixon bird?","Deserts","Tropical rainforests",3,"aig_B",0,50,2,"IQ",0
"2HP5i426Yn85eYrxkfzNiY2Hnh","nLt4rTCoNZZyMvbMidnvaiSgGx",311929,58,FALSE,22,"{'GK_81': '1', 'GK_81_slider': '50'}",10495,"GK_81","If you are standing on the Equator, your approximate rotational speed is:","Less than 1,000 km/h","Greater than 1000 km/h",2,"aig_B",0,50,1,"GK",0
"2HP5i426Yn85eYrxkfzNiY2Hnh","nLt4rTCoNZZyMvbMidnvaiSgGx",319901,60,FALSE,23,"{'GK_29': '2', 'GK_29_slider': '60'}",6686,"GK_29","Who has a higher NBA career playoff points per game?","Kobe Bryant","Michael Jordan",2,"aig_B",1,60,2,"GK",0.2
"2HP5i426Yn85eYrxkfzNiY2Hnh","nLt4rTCoNZZyMvbMidnvaiSgGx",329875,62,FALSE,24,"{'GK_60': '2', 'GK_60_slider': '50'}",8269,"GK_60","Which is the only country to qualify for every FIFA World Cup (soccer) since inception in 1930?","Argentina","Brazil",2,"aig_B",1,50,2,"GK",0
"2HP5i426Yn85eYrxkfzNiY2Hnh","nLt4rTCoNZZyMvbMidnvaiSgGx",340863,64,FALSE,25,"{'GK_41': '1', 'GK_41_slider': '50'}",9637,"GK_41","Which comes closest in meaning to the following word? Zephyr","Breeze","Tide",1,"aig_B",1,50,1,"GK",0
"2HP5i426Yn85eYrxkfzNiY2Hnh","nLt4rTCoNZZyMvbMidnvaiSgGx",358483,66,FALSE,26,"{'GK_44': '1', 'GK_44_slider': '50'}",16203,"GK_44","Which happened earlier in history?","Julius Caesar getting assassinated","Alexander the Great conquering Egypt",2,"aig_B",0,50,1,"GK",0
"2HP5i426Yn85eYrxkfzNiY2Hnh","nLt4rTCoNZZyMvbMidnvaiSgGx",366850,68,FALSE,27,"{'GK_9': '2', 'GK_9_slider': '100'}",6842,"GK_9","In which continent does Germany lie?","Asia","Europe",2,"aig_B",1,100,2,"GK",1
"2HP5i426Yn85eYrxkfzNiY2Hnh","nLt4rTCoNZZyMvbMidnvaiSgGx",380361,70,FALSE,28,"{'IQ_14': '1', 'IQ_14_slider': '50'}",12012,"IQ_14","What's the main purpose of a Tantrigon device?","To communicate with other dimensions","To teleport through space",3,"aig_B",0,50,1,"IQ",0
"2HP5i426Yn85eYrxkfzNiY2Hnh","nLt4rTCoNZZyMvbMidnvaiSgGx",390599,72,FALSE,29,"{'GK_12': '2', 'GK_12_slider': '100'}",8843,"GK_12","Psychology is used to study the life cycle of animals and plants","True","False",2,"aig_B",1,100,2,"GK",1
"2HwS92RP48m9mZXkOp1Y8sSbyk","o2B1OmRnHiOguf142p5gHzlwXO",756535,20,FALSE,0,"{'GK_90': '1', 'GK_90_slider': '100'}",17473,"GK_90","The reason we experience seasons is because the distance between the earth and sun changes.","True","False",2,"anchor",0,100,1,"GK",1
"2HwS92RP48m9mZXkOp1Y8sSbyk","o2B1OmRnHiOguf142p5gHzlwXO",770853,22,FALSE,1,"{'GK_14': '1', 'GK_14_slider': '80'}",11361,"GK_14","Methane, Carbon Dioxide and Water vapor in the atmosphere are all good at trapping heat from the Earth's surface","True","False",1,"anchor",1,80,1,"GK",0.6
"2HwS92RP48m9mZXkOp1Y8sSbyk","o2B1OmRnHiOguf142p5gHzlwXO",780709,24,FALSE,2,"{'GK_63': '2', 'GK_63_slider': '80'}",7596,"GK_63","Bats are not blind.","True","False",1,"anchor",0,80,2,"GK",0.6
"2HwS92RP48m9mZXkOp1Y8sSbyk","o2B1OmRnHiOguf142p5gHzlwXO",792925,26,FALSE,3,"{'GK_72': '2', 'GK_72_slider': '81'}",9855,"GK_72","The total number of cinema visits in USA in 2018 were approximately how much?","130 million","1.3 billion",2,"anchor",1,81,2,"GK",0.62
"2HwS92RP48m9mZXkOp1Y8sSbyk","o2B1OmRnHiOguf142p5gHzlwXO",801296,28,FALSE,4,"{'GK_86': '1', 'GK_86_slider': '80'}",6730,"GK_86","The velocity of a radio wave and a visible light wave in a vacuum are the same.","True","False",1,"anchor",1,80,1,"GK",0.6
"2HwS92RP48m9mZXkOp1Y8sSbyk","o2B1OmRnHiOguf142p5gHzlwXO",823884,30,TRUE,5,"{}",21004,"IQ_4","What is the most prominent symptom of Seradot's disease?","A fever","A rash",3,"anchor",NA,NA,NA,"IQ",NA
"2HwS92RP48m9mZXkOp1Y8sSbyk","o2B1OmRnHiOguf142p5gHzlwXO",832883,32,FALSE,6,"{'GK_84': '2', 'GK_84_slider': '100'}",6020,"GK_84","How many gold medals did Michael Phelps win at the Beijing Olympics?","4","8",2,"anchor",1,100,2,"GK",1
"2HwS92RP48m9mZXkOp1Y8sSbyk","o2B1OmRnHiOguf142p5gHzlwXO",845265,34,FALSE,7,"{'GK_61': '2', 'GK_61_slider': '90'}",10612,"GK_61","Which comes closest in meaning to the following word? Intransigent","Transitory","Inflexible",2,"anchor",1,90,2,"GK",0.8
"2HwS92RP48m9mZXkOp1Y8sSbyk","o2B1OmRnHiOguf142p5gHzlwXO",854033,36,FALSE,8,"{'GK_2': '1', 'GK_2_slider': '99'}",7275,"GK_2","The radius of the Earth is approximately...","4000 miles","200 miles",1,"anchor",1,99,1,"GK",0.98
"2HwS92RP48m9mZXkOp1Y8sSbyk","o2B1OmRnHiOguf142p5gHzlwXO",860350,38,FALSE,9,"{'GK_3': '1', 'GK_3_slider': '100'}",5119,"GK_3","Apples are classified as:","Fruits","Vegetables",1,"anchor",1,100,1,"GK",1
"2HwS92RP48m9mZXkOp1Y8sSbyk","o2B1OmRnHiOguf142p5gHzlwXO",877167,40,FALSE,10,"{'GK_42': '2', 'GK_42_slider': '79'}",15005,"GK_42","Which happened earlier in history?","Chinese issue the first paper money","European sailors begin to use the magnetic compass",1,"anchor",0,79,2,"GK",0.58
"2HwS92RP48m9mZXkOp1Y8sSbyk","o2B1OmRnHiOguf142p5gHzlwXO",884155,42,FALSE,11,"{'GK_21': '2', 'GK_21_slider': '100'}",5480,"GK_21","The number of weeks in a year is approximately:","500","52",2,"anchor",1,100,2,"GK",1
"2HwS92RP48m9mZXkOp1Y8sSbyk","o2B1OmRnHiOguf142p5gHzlwXO",892192,44,FALSE,12,"{'IQ_1': '2', 'IQ_1_slider': '69'}",6674,"IQ_1","When did the battle of Kavkav take place?","Before 1647","After 1647",3,"anchor",0,69,2,"IQ",0.38
"2HwS92RP48m9mZXkOp1Y8sSbyk","o2B1OmRnHiOguf142p5gHzlwXO",902563,46,FALSE,13,"{'GK_53': '1', 'GK_53_slider': '70'}",8968,"GK_53","The top 10 car manufacturing countries produced approximately how many new cars in 2014?","50 milion","10 million",1,"anchor",1,70,1,"GK",0.4
"2HwS92RP48m9mZXkOp1Y8sSbyk","o2B1OmRnHiOguf142p5gHzlwXO",916094,48,FALSE,14,"{'GK_70': '1', 'GK_70_slider': '70'}",12185,"GK_70","A man bought a car for $10,000. He sold the car once the price fell by 17%, and invested the money so that he then got back $10,000. His profit on the invested amount is approximately:","0.17","0.2",2,"anchor",0,70,1,"GK",0.4
"2HwS92RP48m9mZXkOp1Y8sSbyk","o2B1OmRnHiOguf142p5gHzlwXO",923852,50,FALSE,15,"{'GK_64': '1', 'GK_64_slider': '70'}",6557,"GK_64","Human children have more bones than adults.","True","False",1,"anchor",1,70,1,"GK",0.4
"2HwS92RP48m9mZXkOp1Y8sSbyk","o2B1OmRnHiOguf142p5gHzlwXO",931621,52,FALSE,16,"{'GK_4': '2', 'GK_4_slider': '100'}",6542,"GK_4","Which comes closest in meaning to the following word? Easy","Complex","Simple",2,"anchor",1,100,2,"GK",1
"2HwS92RP48m9mZXkOp1Y8sSbyk","o2B1OmRnHiOguf142p5gHzlwXO",949479,54,FALSE,17,"{'GK_79': '1', 'GK_79_slider': '70'}",16402,"GK_79","Which one of the below is not a correct possible solution for x. | x - 9 | <  10.","-4","4",1,"anchor",1,70,1,"GK",0.4
"2HwS92RP48m9mZXkOp1Y8sSbyk","o2B1OmRnHiOguf142p5gHzlwXO",958753,56,FALSE,18,"{'GK_55': '1', 'GK_55_slider': '58'}",8123,"GK_55","Autism has become an epidemic.","True","False",2,"anchor",0,58,1,"GK",0.16
"2HwS92RP48m9mZXkOp1Y8sSbyk","o2B1OmRnHiOguf142p5gHzlwXO",966118,58,FALSE,19,"{'GK_36': '1', 'GK_36_slider': '79'}",6178,"GK_36","Ocean currents carry heat from the equator toward the north and south poles.","True","False",1,"anchor",1,79,1,"GK",0.58
"2HwS92RP48m9mZXkOp1Y8sSbyk","o2B1OmRnHiOguf142p5gHzlwXO",974817,60,FALSE,20,"{'IQ_5': '2', 'IQ_5_slider': '70'}",6970,"IQ_5","What is the Parlichev method?","A way of extracting minerals from soil","A way of determining the distance to a star",3,"anchor",0,70,2,"IQ",0.4
"2HwS92RP48m9mZXkOp1Y8sSbyk","o2B1OmRnHiOguf142p5gHzlwXO",981705,62,FALSE,21,"{'GK_69': '2', 'GK_69_slider': '100'}",5584,"GK_69","Which is the smallest independent country?","Monaco","Vatican City",2,"anchor",1,100,2,"GK",1
"2HwS92RP48m9mZXkOp1Y8sSbyk","o2B1OmRnHiOguf142p5gHzlwXO",988838,64,FALSE,22,"{'GK_23': '1', 'GK_23_slider': '70'}",5920,"GK_23","Not all metals are attracted to magnets","True","False",1,"anchor",1,70,1,"GK",0.4
"2HwS92RP48m9mZXkOp1Y8sSbyk","o2B1OmRnHiOguf142p5gHzlwXO",999237,66,FALSE,23,"{'IQ_2': '2', 'IQ_2_slider': '71'}",8951,"IQ_2","How many sides does a Detseroid have?","More than 20","Less than 20",3,"anchor",0,71,2,"IQ",0.42
"2HwS92RP48m9mZXkOp1Y8sSbyk","o2B1OmRnHiOguf142p5gHzlwXO",1007522,68,FALSE,24,"{'GK_22': '2', 'GK_22_slider': '68'}",7052,"GK_22","China has over 1 billion mobile cellular connections","True","False",1,"anchor",0,68,2,"GK",0.36
"2HwS92RP48m9mZXkOp1Y8sSbyk","o2B1OmRnHiOguf142p5gHzlwXO",1025111,70,FALSE,25,"{'GK_75': '1', 'GK_75_slider': '69'}",16142,"GK_75","In 2006, the status of the then planet Pluto was reduced to 'dwarf Planet' so that it was no longer officially the ninth planet in our Solar system. The reason for this was because its' gravitational force was not enough to","Maintain its regular orbit around the sun","Clear its neighbouring region of planetesimals and asteroids etc.",2,"anchor",0,69,1,"GK",0.38
"2HwS92RP48m9mZXkOp1Y8sSbyk","o2B1OmRnHiOguf142p5gHzlwXO",1037345,72,FALSE,26,"{'IQ_6': '2', 'IQ_6_slider': '74'}",11218,"IQ_6","Resistance Configuration Theory is a psychological theory that explains:","How people avoid blame and why they do not recognize when something is their fault","Why certain people do not try new experiences",3,"anchor",0,74,2,"IQ",0.48
"2HwS92RP48m9mZXkOp1Y8sSbyk","o2B1OmRnHiOguf142p5gHzlwXO",1044752,74,FALSE,27,"{'GK_80': '2', 'GK_80_slider': '68'}",6420,"GK_80","Most diamonds are not formed from coal.","True","False",1,"anchor",0,68,2,"GK",0.36
"2HwS92RP48m9mZXkOp1Y8sSbyk","o2B1OmRnHiOguf142p5gHzlwXO",1052240,76,FALSE,28,"{'IQ_3': '2', 'IQ_3_slider': '75'}",6142,"IQ_3","What is the population of Synomle?","More than 10,000","Less than 10,000",3,"anchor",0,75,2,"IQ",0.5
"2HwS92RP48m9mZXkOp1Y8sSbyk","o2B1OmRnHiOguf142p5gHzlwXO",1060686,78,FALSE,29,"{'GK_6': '1', 'GK_6_slider': '100'}",7488,"GK_6","Which of the following is found in plant cells but not animal cells?","Chloroplasts","Ribosome",1,"anchor",1,100,1,"GK",1
"2TBHnZOJUYj0MYZrQRly55DXIe","FnXNJBhxBqrUUwhvzdcOISzDMd",4029956,1142,FALSE,0,"{'GK_13': '1', 'GK_13_slider': '90'}",10983,"GK_13","Melting point is the temperature at which solids:","Melt in liquids","Evaporate into gases",1,"aig_B",1,90,1,"GK",0.8
"2TBHnZOJUYj0MYZrQRly55DXIe","FnXNJBhxBqrUUwhvzdcOISzDMd",4042730,1144,FALSE,1,"{'GK_29': '2', 'GK_29_slider': '80'}",9917,"GK_29","Who has a higher NBA career playoff points per game?","Kobe Bryant","Michael Jordan",2,"aig_B",1,80,2,"GK",0.6
"2TBHnZOJUYj0MYZrQRly55DXIe","FnXNJBhxBqrUUwhvzdcOISzDMd",4054713,1146,FALSE,2,"{'GK_57': '2', 'GK_57_slider': '60'}",10106,"GK_57","Positive charges cannot flow in any conductor.","True","False",2,"aig_B",1,60,2,"GK",0.2
"2TBHnZOJUYj0MYZrQRly55DXIe","FnXNJBhxBqrUUwhvzdcOISzDMd",4067308,1148,FALSE,3,"{'GK_88': '1', 'GK_88_slider': '73'}",10532,"GK_88","People with amnesia forget all details of their earlier life.","True","False",2,"aig_B",0,73,1,"GK",0.46
"2TBHnZOJUYj0MYZrQRly55DXIe","FnXNJBhxBqrUUwhvzdcOISzDMd",4078950,1150,FALSE,4,"{'GK_60': '2', 'GK_60_slider': '79'}",9826,"GK_60","Which is the only country to qualify for every FIFA World Cup (soccer) since inception in 1930?","Argentina","Brazil",2,"aig_B",1,79,2,"GK",0.58
"2TBHnZOJUYj0MYZrQRly55DXIe","FnXNJBhxBqrUUwhvzdcOISzDMd",4087323,1152,FALSE,5,"{'GK_33': '2', 'GK_33_slider': '100'}",6573,"GK_33","Which planet in our solar system is closest to the Sun?","Pluto","Mercury",2,"aig_B",1,100,2,"GK",1
"2TBHnZOJUYj0MYZrQRly55DXIe","FnXNJBhxBqrUUwhvzdcOISzDMd",4097209,1154,FALSE,6,"{'GK_66': '2', 'GK_66_slider': '60'}",7830,"GK_66","The number of tourist arrivals per year in China (as of 2018) were approximately:","141 million","31 million",1,"aig_B",0,60,2,"GK",0.2
"2TBHnZOJUYj0MYZrQRly55DXIe","FnXNJBhxBqrUUwhvzdcOISzDMd",4107893,1156,FALSE,7,"{'IQ_18': '2', 'IQ_18_slider': '50'}",9132,"IQ_18","The Diflective Assumption Theory helps us understand:","How memories are stored in the brain","How emotions impact our decision making",3,"aig_B",0,50,2,"IQ",0
"2TBHnZOJUYj0MYZrQRly55DXIe","FnXNJBhxBqrUUwhvzdcOISzDMd",4116160,1158,FALSE,8,"{'GK_93': '1', 'GK_93_slider': '91'}",6443,"GK_93","Which country remained neutral throughout World War II?","Turkey","Afghanistan",2,"aig_B",0,91,1,"GK",0.82
"2TBHnZOJUYj0MYZrQRly55DXIe","FnXNJBhxBqrUUwhvzdcOISzDMd",4126845,1160,FALSE,9,"{'GK_58': '1', 'GK_58_slider': '70'}",8971,"GK_58","What light-sensitive cells in the eye detect colors?","Cones","Rods",1,"aig_B",1,70,1,"GK",0.4
"2TBHnZOJUYj0MYZrQRly55DXIe","FnXNJBhxBqrUUwhvzdcOISzDMd",4136311,1162,FALSE,10,"{'GK_47': '2', 'GK_47_slider': '89'}",7846,"GK_47","Radioactive milk cannot be made safe by boiling it","True","False",1,"aig_B",0,89,2,"GK",0.78
"2TBHnZOJUYj0MYZrQRly55DXIe","FnXNJBhxBqrUUwhvzdcOISzDMd",4145039,1164,FALSE,11,"{'GK_44': '2', 'GK_44_slider': '69'}",7063,"GK_44","Which happened earlier in history?","Julius Caesar getting assassinated","Alexander the Great conquering Egypt",2,"aig_B",1,69,2,"GK",0.38
"2TBHnZOJUYj0MYZrQRly55DXIe","FnXNJBhxBqrUUwhvzdcOISzDMd",4154351,1166,FALSE,12,"{'GK_37': '2', 'GK_37_slider': '52'}",7775,"GK_37","Which champion boxer had the birth name Cassius Clay?","Mike Tyson","Muhammed Ali",2,"aig_B",1,52,2,"GK",0.04
"2TBHnZOJUYj0MYZrQRly55DXIe","FnXNJBhxBqrUUwhvzdcOISzDMd",4164388,1168,FALSE,13,"{'GK_9': '2', 'GK_9_slider': '79'}",8293,"GK_9","In which continent does Germany lie?","Asia","Europe",2,"aig_B",1,79,2,"GK",0.58
"2TBHnZOJUYj0MYZrQRly55DXIe","FnXNJBhxBqrUUwhvzdcOISzDMd",4174278,1170,FALSE,14,"{'GK_81': '2', 'GK_81_slider': '79'}",8315,"GK_81","If you are standing on the Equator, your approximate rotational speed is:","Less than 1,000 km/h","Greater than 1000 km/h",2,"aig_B",1,79,2,"GK",0.58
"2TBHnZOJUYj0MYZrQRly55DXIe","FnXNJBhxBqrUUwhvzdcOISzDMd",4184378,1172,FALSE,15,"{'GK_83': '2', 'GK_83_slider': '69'}",8403,"GK_83","Jupiter's largest moon Ganymede is smaller (in diameter) than the planet Mercury.","True","False",2,"aig_B",1,69,2,"GK",0.38
"2TBHnZOJUYj0MYZrQRly55DXIe","FnXNJBhxBqrUUwhvzdcOISzDMd",4193005,1174,FALSE,16,"{'GK_87': '1', 'GK_87_slider': '59'}",7060,"GK_87","House flies have an average life span of less than 2 days.","True","False",2,"aig_B",0,59,1,"GK",0.18
"2TBHnZOJUYj0MYZrQRly55DXIe","FnXNJBhxBqrUUwhvzdcOISzDMd",4200438,1176,FALSE,17,"{'GK_82': '2', 'GK_82_slider': '80'}",5997,"GK_82","Plants use oxygen.","True","False",1,"aig_B",0,80,2,"GK",0.6
"2TBHnZOJUYj0MYZrQRly55DXIe","FnXNJBhxBqrUUwhvzdcOISzDMd",4208775,1178,FALSE,18,"{'IQ_17': '2', 'IQ_17_slider': '71'}",6374,"IQ_17","What is the Kraghold method used for?","Predicting stock market trends","Improving memory recall",3,"aig_B",0,71,2,"IQ",0.42
"2TBHnZOJUYj0MYZrQRly55DXIe","FnXNJBhxBqrUUwhvzdcOISzDMd",4226304,1180,FALSE,19,"{'GK_26': '1', 'GK_26_slider': '69'}",16043,"GK_26","Given: Any glass requires cups to exist but cups can exist without glass. One cup can support only one glass. Logical conclusion: There are more cups existing than glasses.","True","False",1,"aig_B",1,69,1,"GK",0.38
"2TBHnZOJUYj0MYZrQRly55DXIe","FnXNJBhxBqrUUwhvzdcOISzDMd",4236038,1182,FALSE,20,"{'GK_24': '2', 'GK_24_slider': '58'}",8282,"GK_24","Which comes closest in meaning to the following word: Antediluvian","Ancient","Liberal",1,"aig_B",0,58,2,"GK",0.16
"2TBHnZOJUYj0MYZrQRly55DXIe","FnXNJBhxBqrUUwhvzdcOISzDMd",4244030,1184,FALSE,21,"{'IQ_15': '2', 'IQ_15_slider': '69'}",6518,"IQ_15","What's the habitat of a Rojixon bird?","Deserts","Tropical rainforests",3,"aig_B",0,69,2,"IQ",0.38
"2TBHnZOJUYj0MYZrQRly55DXIe","FnXNJBhxBqrUUwhvzdcOISzDMd",4264547,1186,FALSE,22,"{'GK_12': '1', 'GK_12_slider': '69'}",18749,"GK_12","Psychology is used to study the life cycle of animals and plants","True","False",2,"aig_B",0,69,1,"GK",0.38
"2TBHnZOJUYj0MYZrQRly55DXIe","FnXNJBhxBqrUUwhvzdcOISzDMd",4285594,1188,FALSE,23,"{'GK_41': '1', 'GK_41_slider': '68'}",19102,"GK_41","Which comes closest in meaning to the following word? Zephyr","Breeze","Tide",1,"aig_B",1,68,1,"GK",0.36
"2TBHnZOJUYj0MYZrQRly55DXIe","FnXNJBhxBqrUUwhvzdcOISzDMd",4308145,1190,FALSE,24,"{'IQ_14': '1', 'IQ_14_slider': '69'}",20803,"IQ_14","What's the main purpose of a Tantrigon device?","To communicate with other dimensions","To teleport through space",3,"aig_B",0,69,1,"IQ",0.38
"2TBHnZOJUYj0MYZrQRly55DXIe","FnXNJBhxBqrUUwhvzdcOISzDMd",4322194,1192,FALSE,25,"{'GK_62': '2', 'GK_62_slider': '68'}",10484,"GK_62","Which comes closest in meaning to the following word? Soporific","Pertaining to one's self","Sleep inducing",2,"aig_B",1,68,2,"GK",0.36
"2TBHnZOJUYj0MYZrQRly55DXIe","FnXNJBhxBqrUUwhvzdcOISzDMd",4332813,1194,FALSE,26,"{'IQ_13': '2', 'IQ_13_slider': '59'}",7707,"IQ_13","What are the ingredients of a traditional Zibrune stew?","Magical herbs and spices","Alien sea creatures",3,"aig_B",0,59,2,"IQ",0.18
"2TBHnZOJUYj0MYZrQRly55DXIe","FnXNJBhxBqrUUwhvzdcOISzDMd",4341562,1196,FALSE,27,"{'GK_15': '1', 'GK_15_slider': '99'}",7172,"GK_15","Which comes closest in meaning to the following word: Quick","Fast","Slow",1,"aig_B",1,99,1,"GK",0.98
"2TBHnZOJUYj0MYZrQRly55DXIe","FnXNJBhxBqrUUwhvzdcOISzDMd",4353348,1198,FALSE,28,"{'GK_16': '2', 'GK_16_slider': '90'}",9907,"GK_16","Which happened earlier in history?","World War 1","Construction of the Egyptian pyramids",2,"aig_B",1,90,2,"GK",0.8
"2TBHnZOJUYj0MYZrQRly55DXIe","FnXNJBhxBqrUUwhvzdcOISzDMd",4362718,1200,FALSE,29,"{'IQ_16': '2', 'IQ_16_slider': '90'}",7396,"IQ_16","What's the side effect of Grilpax's disease?","Change in hair color","Ability to sing beautifully",3,"aig_B",0,90,2,"IQ",0.8
"3010VpETEkXFqjo39qrBStSWXM","Lj70ZjxEs7AsPDWt8XsLJHWKsO",2321584,1148,FALSE,0,"{'GK_72': '1', 'GK_72_slider': '60'}",8215,"GK_72","The total number of cinema visits in USA in 2018 were approximately how much?","130 million","1.3 billion",2,"anchor",0,60,1,"GK",0.2
