"session_id","session_restart_id","time_elapsed","trial_index","custom_timer_ended_trial","rt","cfs_id","cfs_response","wave"
"Z74YBwECpL8QkLR6RuxT2rrff6","hkshJADA5gEvvtwdyiZzMC4WH7",711996,607,FALSE,44908,"['trinary_A', 'trinary_B', 'trinary_C', 'trinary_AB', 'trinary_BC']","['70', '79', '89', '79', '100']","3.0"
"Z74YBwECpL8QkLR6RuxT2rrff6","hkshJADA5gEvvtwdyiZzMC4WH7",742452,608,FALSE,30454,"['binary_statepop1', 'binary_statearea1', 'binary_gdp1']","['80', '50', '80']","3.0"
"Z74YBwECpL8QkLR6RuxT2rrff6","hkshJADA5gEvvtwdyiZzMC4WH7",755576,609,FALSE,13122,"['binary_statepop2', 'binary_statearea2', 'binary_gdp2']","['20', '49', '19']","3.0"
"Z74YBwECpL8QkLR6RuxT2rrff6","hkshJADA5gEvvtwdyiZzMC4WH7",774928,610,FALSE,19350,"['time1', 'time2', 'time3']","['80', '89', '93']","3.0"
"Z74YBwECpL8QkLR6RuxT2rrff6","hkshJADA5gEvvtwdyiZzMC4WH7",784852,611,FALSE,9922,"['time4', 'time5', 'time6']","['59', '69', '79']","3.0"
"Z74YBwECpL8QkLR6RuxT2rrff6","hkshJADA5gEvvtwdyiZzMC4WH7",802386,612,FALSE,17532,"['space1', 'space2', 'space3']","['80', '99', '99']","3.0"
"Z74YBwECpL8QkLR6RuxT2rrff6","hkshJADA5gEvvtwdyiZzMC4WH7",818360,613,FALSE,15972,"['space4', 'space5', 'space6']","['90', '90', '99']","3.0"
"Z74YBwECpL8QkLR6RuxT2rrff6","hkshJADA5gEvvtwdyiZzMC4WH7",861016,614,FALSE,42655,"['confidence_interval1', 'confidence_interval2', 'confidence_interval3']","['99', '99', '99']","3.0"
"NhLuEUpFKVLMXcgOH9FRZibbUN","8bqynu00xCMLlut8SOlhm9JjIj",2146389,1179,FALSE,9688,"['trinary_A', 'trinary_B', 'trinary_C', 'trinary_AB', 'trinary_BC']","['77', '80', '79', '78', '77']","3.0"
"NhLuEUpFKVLMXcgOH9FRZibbUN","8bqynu00xCMLlut8SOlhm9JjIj",2151831,1180,FALSE,5433,"['binary_statepop1', 'binary_statearea1', 'binary_gdp1']","['73', '64', '62']","3.0"
"NhLuEUpFKVLMXcgOH9FRZibbUN","8bqynu00xCMLlut8SOlhm9JjIj",2156621,1181,FALSE,4783,"['binary_statepop2', 'binary_statearea2', 'binary_gdp2']","['65', '68', '64']","3.0"
"NhLuEUpFKVLMXcgOH9FRZibbUN","8bqynu00xCMLlut8SOlhm9JjIj",2160494,1182,FALSE,3862,"['time1', 'time2', 'time3']","['57', '39', '43']","3.0"
"NhLuEUpFKVLMXcgOH9FRZibbUN","8bqynu00xCMLlut8SOlhm9JjIj",2165835,1183,FALSE,5334,"['time4', 'time5', 'time6']","['59', '50', '42']","3.0"
"NhLuEUpFKVLMXcgOH9FRZibbUN","8bqynu00xCMLlut8SOlhm9JjIj",2172600,1184,FALSE,6757,"['space1', 'space2', 'space3']","['48', '69', '60']","3.0"
"NhLuEUpFKVLMXcgOH9FRZibbUN","8bqynu00xCMLlut8SOlhm9JjIj",2178061,1185,FALSE,5453,"['space4', 'space5', 'space6']","['44', '46', '27']","3.0"
"NhLuEUpFKVLMXcgOH9FRZibbUN","8bqynu00xCMLlut8SOlhm9JjIj",2182259,1186,FALSE,4190,"['confidence_interval1', 'confidence_interval2', 'confidence_interval3']","['79', '74', '73']","3.0"
"roE5s1646kIDOHR2ypn0gY8XIG","28TcpfsssHRGwhYTS43NorZ2aj",3712663,958,FALSE,16111,"['trinary_A', 'trinary_B', 'trinary_C', 'trinary_AB', 'trinary_BC']","['61', '55', '48', '75', '75']","2.0"
"roE5s1646kIDOHR2ypn0gY8XIG","28TcpfsssHRGwhYTS43NorZ2aj",3724597,959,FALSE,11932,"['binary_statepop1', 'binary_statearea1', 'binary_gdp1']","['58', '60', '89']","2.0"
"roE5s1646kIDOHR2ypn0gY8XIG","28TcpfsssHRGwhYTS43NorZ2aj",3731537,960,FALSE,6938,"['binary_statepop2', 'binary_statearea2', 'binary_gdp2']","['65', '60', '74']","2.0"
"roE5s1646kIDOHR2ypn0gY8XIG","28TcpfsssHRGwhYTS43NorZ2aj",3742054,961,FALSE,10515,"['time1', 'time2', 'time3']","['57', '52', '43']","2.0"
"roE5s1646kIDOHR2ypn0gY8XIG","28TcpfsssHRGwhYTS43NorZ2aj",3752353,962,FALSE,10297,"['time4', 'time5', 'time6']","['65', '58', '51']","2.0"
"roE5s1646kIDOHR2ypn0gY8XIG","28TcpfsssHRGwhYTS43NorZ2aj",3758734,963,FALSE,6380,"['space1', 'space2', 'space3']","['54', '49', '43']","2.0"
"roE5s1646kIDOHR2ypn0gY8XIG","28TcpfsssHRGwhYTS43NorZ2aj",3767970,964,FALSE,9235,"['space4', 'space5', 'space6']","['62', '56', '51']","2.0"
"roE5s1646kIDOHR2ypn0gY8XIG","28TcpfsssHRGwhYTS43NorZ2aj",3775163,965,FALSE,7191,"['confidence_interval1', 'confidence_interval2', 'confidence_interval3']","['57', '54', '50']","2.0"
"tLSjGm6Dqri4nsVHHnkVL8G3V4","VYycXONC2I51jJfJmnalaU8NU2",288465,29,FALSE,9849,"['trinary_A', 'trinary_B', 'trinary_C', 'trinary_AB', 'trinary_BC']","['19', '31', '35', '33', '27']","2.0"
"tLSjGm6Dqri4nsVHHnkVL8G3V4","VYycXONC2I51jJfJmnalaU8NU2",291930,30,FALSE,3464,"['binary_statepop1', 'binary_statearea1', 'binary_gdp1']","['54', '59', '69']","2.0"
"tLSjGm6Dqri4nsVHHnkVL8G3V4","VYycXONC2I51jJfJmnalaU8NU2",295869,31,FALSE,3938,"['binary_statepop2', 'binary_statearea2', 'binary_gdp2']","['66', '73', '79']","2.0"
"tLSjGm6Dqri4nsVHHnkVL8G3V4","VYycXONC2I51jJfJmnalaU8NU2",299052,32,FALSE,3183,"['time1', 'time2', 'time3']","['40', '43', '51']","2.0"
"tLSjGm6Dqri4nsVHHnkVL8G3V4","VYycXONC2I51jJfJmnalaU8NU2",303185,33,FALSE,4132,"['time4', 'time5', 'time6']","['33', '56', '65']","2.0"
"tLSjGm6Dqri4nsVHHnkVL8G3V4","VYycXONC2I51jJfJmnalaU8NU2",305908,34,FALSE,2720,"['space1', 'space2', 'space3']","['35', '51', '60']","2.0"
"tLSjGm6Dqri4nsVHHnkVL8G3V4","VYycXONC2I51jJfJmnalaU8NU2",309100,35,FALSE,3191,"['space4', 'space5', 'space6']","['32', '64', '82']","2.0"
"tLSjGm6Dqri4nsVHHnkVL8G3V4","VYycXONC2I51jJfJmnalaU8NU2",312476,36,FALSE,3376,"['confidence_interval1', 'confidence_interval2', 'confidence_interval3']","['29', '56', '64']","2.0"
"W6lW7tpcdPnwidSMJyh0KrZtZ9","FC4UOASx57sEFVAZBJFSxdRL5X",864590,227,FALSE,10216,"['trinary_A', 'trinary_B', 'trinary_C', 'trinary_AB', 'trinary_BC']","['55', '54', '58', '60', '58']","3.0"
"W6lW7tpcdPnwidSMJyh0KrZtZ9","FC4UOASx57sEFVAZBJFSxdRL5X",880588,228,FALSE,15992,"['binary_statepop1', 'binary_statearea1', 'binary_gdp1']","['46', '45', '43']","3.0"
"W6lW7tpcdPnwidSMJyh0KrZtZ9","FC4UOASx57sEFVAZBJFSxdRL5X",886451,229,FALSE,5859,"['binary_statepop2', 'binary_statearea2', 'binary_gdp2']","['42', '40', '42']","3.0"
"W6lW7tpcdPnwidSMJyh0KrZtZ9","FC4UOASx57sEFVAZBJFSxdRL5X",891698,230,FALSE,5243,"['time1', 'time2', 'time3']","['42', '43', '43']","3.0"
"W6lW7tpcdPnwidSMJyh0KrZtZ9","FC4UOASx57sEFVAZBJFSxdRL5X",939437,231,FALSE,47734,"['time4', 'time5', 'time6']","['37', '41', '41']","3.0"
"W6lW7tpcdPnwidSMJyh0KrZtZ9","FC4UOASx57sEFVAZBJFSxdRL5X",944067,232,FALSE,4626,"['space1', 'space2', 'space3']","['52', '49', '56']","3.0"
"W6lW7tpcdPnwidSMJyh0KrZtZ9","FC4UOASx57sEFVAZBJFSxdRL5X",948003,233,FALSE,3932,"['space4', 'space5', 'space6']","['43', '43', '47']","3.0"
"W6lW7tpcdPnwidSMJyh0KrZtZ9","FC4UOASx57sEFVAZBJFSxdRL5X",953651,234,FALSE,5643,"['confidence_interval1', 'confidence_interval2', 'confidence_interval3']","['51', '49', '49']","3.0"
"Ox2JDobTVCybEB6T15i8Cf82Z1","6tVhik6yMDBEBQwVOgIqfCrq0H",65473,13,FALSE,42569,"['trinary_A', 'trinary_B', 'trinary_C', 'trinary_AB', 'trinary_BC']","['60', '80', '91', '42', '39']","2.0"
"Ox2JDobTVCybEB6T15i8Cf82Z1","6tVhik6yMDBEBQwVOgIqfCrq0H",92198,14,FALSE,26719,"['binary_statepop1', 'binary_statearea1', 'binary_gdp1']","['62', '100', '92']","2.0"
"Ox2JDobTVCybEB6T15i8Cf82Z1","6tVhik6yMDBEBQwVOgIqfCrq0H",117320,15,FALSE,25117,"['binary_statepop2', 'binary_statearea2', 'binary_gdp2']","['29', '1', '79']","2.0"
"Ox2JDobTVCybEB6T15i8Cf82Z1","6tVhik6yMDBEBQwVOgIqfCrq0H",133049,16,FALSE,15722,"['time1', 'time2', 'time3']","['9', '3', '1']","2.0"
"Ox2JDobTVCybEB6T15i8Cf82Z1","6tVhik6yMDBEBQwVOgIqfCrq0H",150828,17,FALSE,17773,"['time4', 'time5', 'time6']","['89', '95', '100']","2.0"
"Ox2JDobTVCybEB6T15i8Cf82Z1","6tVhik6yMDBEBQwVOgIqfCrq0H",168661,18,FALSE,17829,"['space1', 'space2', 'space3']","['96', '100', '100']","2.0"
"Ox2JDobTVCybEB6T15i8Cf82Z1","6tVhik6yMDBEBQwVOgIqfCrq0H",183279,19,FALSE,14614,"['space4', 'space5', 'space6']","['80', '100', '80']","2.0"
"Ox2JDobTVCybEB6T15i8Cf82Z1","6tVhik6yMDBEBQwVOgIqfCrq0H",244284,20,TRUE,61000,"['confidence_interval1', 'confidence_interval2', 'confidence_interval3']","['0', '0', '0']","2.0"
"WiMJRTZtpieHRm3ClAWipoHr0C","SGb3o2ONPK215NplFlfdAm7wub",1386574,128,FALSE,29363,"['trinary_A', 'trinary_B', 'trinary_C', 'trinary_AB', 'trinary_BC']","['0', '30', '10', '20', '29']","2.0"
"WiMJRTZtpieHRm3ClAWipoHr0C","SGb3o2ONPK215NplFlfdAm7wub",1412922,129,FALSE,26347,"['binary_statepop1', 'binary_statearea1', 'binary_gdp1']","['10', '80', '80']","2.0"
"WiMJRTZtpieHRm3ClAWipoHr0C","SGb3o2ONPK215NplFlfdAm7wub",1430472,130,FALSE,17549,"['binary_statepop2', 'binary_statearea2', 'binary_gdp2']","['100', '21', '19']","2.0"
"WiMJRTZtpieHRm3ClAWipoHr0C","SGb3o2ONPK215NplFlfdAm7wub",1447832,131,FALSE,17359,"['time1', 'time2', 'time3']","['80', '90', '100']","2.0"
"WiMJRTZtpieHRm3ClAWipoHr0C","SGb3o2ONPK215NplFlfdAm7wub",1463270,132,FALSE,15437,"['time4', 'time5', 'time6']","['60', '70', '79']","2.0"
"WiMJRTZtpieHRm3ClAWipoHr0C","SGb3o2ONPK215NplFlfdAm7wub",1486280,133,FALSE,23009,"['space1', 'space2', 'space3']","['62', '81', '100']","2.0"
"WiMJRTZtpieHRm3ClAWipoHr0C","SGb3o2ONPK215NplFlfdAm7wub",1510392,134,FALSE,24111,"['space4', 'space5', 'space6']","['91', '90', '79']","2.0"
"WiMJRTZtpieHRm3ClAWipoHr0C","SGb3o2ONPK215NplFlfdAm7wub",1528033,135,FALSE,17641,"['confidence_interval1', 'confidence_interval2', 'confidence_interval3']","['89', '90', '100']","2.0"
"DebsBC0abituuuNqZbrWt3jR91","u09piBR9Rt2XBjdzMPHEKX1BQv",1394615,244,FALSE,15556,"['trinary_A', 'trinary_B', 'trinary_C', 'trinary_AB', 'trinary_BC']","['54', '65', '71', '32', '56']","3.0"
"DebsBC0abituuuNqZbrWt3jR91","u09piBR9Rt2XBjdzMPHEKX1BQv",1406126,245,FALSE,11509,"['binary_statepop1', 'binary_statearea1', 'binary_gdp1']","['49', '63', '71']","3.0"
"DebsBC0abituuuNqZbrWt3jR91","u09piBR9Rt2XBjdzMPHEKX1BQv",1413998,246,FALSE,7869,"['binary_statepop2', 'binary_statearea2', 'binary_gdp2']","['60', '63', '66']","3.0"
"DebsBC0abituuuNqZbrWt3jR91","u09piBR9Rt2XBjdzMPHEKX1BQv",1428830,247,FALSE,14830,"['time1', 'time2', 'time3']","['72', '75', '73']","3.0"
"DebsBC0abituuuNqZbrWt3jR91","u09piBR9Rt2XBjdzMPHEKX1BQv",1439926,248,FALSE,11094,"['time4', 'time5', 'time6']","['50', '55', '57']","3.0"
"DebsBC0abituuuNqZbrWt3jR91","u09piBR9Rt2XBjdzMPHEKX1BQv",1450878,249,FALSE,10950,"['space1', 'space2', 'space3']","['80', '67', '72']","3.0"
"DebsBC0abituuuNqZbrWt3jR91","u09piBR9Rt2XBjdzMPHEKX1BQv",1457486,250,FALSE,6605,"['space4', 'space5', 'space6']","['49', '57', '71']","3.0"
"DebsBC0abituuuNqZbrWt3jR91","u09piBR9Rt2XBjdzMPHEKX1BQv",1477886,251,FALSE,20398,"['confidence_interval1', 'confidence_interval2', 'confidence_interval3']","['20', '30', '65']","3.0"
"pXLD8gCCp0YZ9CquUV1lQCIj5c","1zlxdqkJSNjpxeTuzeYDS0hy3y",2774655,1116,FALSE,55574,"['trinary_A', 'trinary_B', 'trinary_C', 'trinary_AB', 'trinary_BC']","['1', '1', '100', '0', '100']","3.0"
"pXLD8gCCp0YZ9CquUV1lQCIj5c","1zlxdqkJSNjpxeTuzeYDS0hy3y",2793920,1117,FALSE,19263,"['binary_statepop1', 'binary_statearea1', 'binary_gdp1']","['3', '75', '96']","3.0"
"pXLD8gCCp0YZ9CquUV1lQCIj5c","1zlxdqkJSNjpxeTuzeYDS0hy3y",2811291,1118,FALSE,17370,"['binary_statepop2', 'binary_statearea2', 'binary_gdp2']","['99', '96', '4']","3.0"
"pXLD8gCCp0YZ9CquUV1lQCIj5c","1zlxdqkJSNjpxeTuzeYDS0hy3y",2828281,1119,FALSE,16989,"['time1', 'time2', 'time3']","['50', '80', '85']","3.0"
"pXLD8gCCp0YZ9CquUV1lQCIj5c","1zlxdqkJSNjpxeTuzeYDS0hy3y",2838587,1120,FALSE,10304,"['time4', 'time5', 'time6']","['64', '89', '90']","3.0"
"pXLD8gCCp0YZ9CquUV1lQCIj5c","1zlxdqkJSNjpxeTuzeYDS0hy3y",2859045,1121,FALSE,20456,"['space1', 'space2', 'space3']","['100', '100', '100']","3.0"
"pXLD8gCCp0YZ9CquUV1lQCIj5c","1zlxdqkJSNjpxeTuzeYDS0hy3y",2874865,1122,FALSE,15818,"['space4', 'space5', 'space6']","['59', '90', '100']","3.0"
"pXLD8gCCp0YZ9CquUV1lQCIj5c","1zlxdqkJSNjpxeTuzeYDS0hy3y",2903367,1123,FALSE,28501,"['confidence_interval1', 'confidence_interval2', 'confidence_interval3']","['70', '70', '29']","3.0"
"rDRcOADIKvymJ2TSyULLnxWo4D","6buOomZW04tVoIyk2wo6RJC08Q",13619460,128,FALSE,37542,"['trinary_A', 'trinary_B', 'trinary_C', 'trinary_AB', 'trinary_BC']","['50', '50', '79', '33', '57']","3.0"
"rDRcOADIKvymJ2TSyULLnxWo4D","6buOomZW04tVoIyk2wo6RJC08Q",13637924,129,FALSE,18463,"['binary_statepop1', 'binary_statearea1', 'binary_gdp1']","['58', '49', '69']","3.0"
"rDRcOADIKvymJ2TSyULLnxWo4D","6buOomZW04tVoIyk2wo6RJC08Q",13659204,130,FALSE,21279,"['binary_statepop2', 'binary_statearea2', 'binary_gdp2']","['50', '40', '32']","3.0"
"rDRcOADIKvymJ2TSyULLnxWo4D","6buOomZW04tVoIyk2wo6RJC08Q",13676302,131,FALSE,17096,"['time1', 'time2', 'time3']","['75', '84', '99']","3.0"
"rDRcOADIKvymJ2TSyULLnxWo4D","6buOomZW04tVoIyk2wo6RJC08Q",13689586,132,FALSE,13283,"['time4', 'time5', 'time6']","['65', '72', '84']","3.0"
"rDRcOADIKvymJ2TSyULLnxWo4D","6buOomZW04tVoIyk2wo6RJC08Q",13712866,133,FALSE,23279,"['space1', 'space2', 'space3']","['100', '100', '100']","3.0"
"rDRcOADIKvymJ2TSyULLnxWo4D","6buOomZW04tVoIyk2wo6RJC08Q",13734483,134,FALSE,21617,"['space4', 'space5', 'space6']","['59', '55', '87']","3.0"
"rDRcOADIKvymJ2TSyULLnxWo4D","6buOomZW04tVoIyk2wo6RJC08Q",13747564,135,FALSE,13079,"['confidence_interval1', 'confidence_interval2', 'confidence_interval3']","['48', '50', '48']","3.0"
"q4nRVOcjo2BHXLaJItbKSgI6Cl","gkstQDYnOuTw7vuImoEZYZ5h09",166417,18,FALSE,48254,"['trinary_A', 'trinary_B', 'trinary_C', 'trinary_AB', 'trinary_BC']","['0', '10', '90', '10', '100']","3.0"
"q4nRVOcjo2BHXLaJItbKSgI6Cl","gkstQDYnOuTw7vuImoEZYZ5h09",194803,19,FALSE,28383,"['binary_statepop1', 'binary_statearea1', 'binary_gdp1']","['80', '79', '79']","3.0"
"q4nRVOcjo2BHXLaJItbKSgI6Cl","gkstQDYnOuTw7vuImoEZYZ5h09",212503,20,FALSE,17699,"['binary_statepop2', 'binary_statearea2', 'binary_gdp2']","['20', '19', '20']","3.0"
"q4nRVOcjo2BHXLaJItbKSgI6Cl","gkstQDYnOuTw7vuImoEZYZ5h09",227852,21,FALSE,15348,"['time1', 'time2', 'time3']","['50', '60', '67']","3.0"
"q4nRVOcjo2BHXLaJItbKSgI6Cl","gkstQDYnOuTw7vuImoEZYZ5h09",241257,22,FALSE,13403,"['time4', 'time5', 'time6']","['10', '15', '19']","3.0"
"q4nRVOcjo2BHXLaJItbKSgI6Cl","gkstQDYnOuTw7vuImoEZYZ5h09",256903,23,FALSE,15644,"['space1', 'space2', 'space3']","['60', '80', '100']","3.0"
"q4nRVOcjo2BHXLaJItbKSgI6Cl","gkstQDYnOuTw7vuImoEZYZ5h09",269915,24,FALSE,13010,"['space4', 'space5', 'space6']","['30', '50', '80']","3.0"
"q4nRVOcjo2BHXLaJItbKSgI6Cl","gkstQDYnOuTw7vuImoEZYZ5h09",298895,25,FALSE,28978,"['confidence_interval1', 'confidence_interval2', 'confidence_interval3']","['70', '74', '86']","3.0"
"Mx8vIXApijMaRfRVx5CwheNj7R","sRPWARk8wXzRjwNYFCV7c96tAO",5319066,935,FALSE,50754,"['trinary_A', 'trinary_B', 'trinary_C', 'trinary_AB', 'trinary_BC']","['85', '80', '39', '79', '40']","2.0"
"Mx8vIXApijMaRfRVx5CwheNj7R","sRPWARk8wXzRjwNYFCV7c96tAO",5347266,936,FALSE,28197,"['binary_statepop1', 'binary_statearea1', 'binary_gdp1']","['50', '29', '29']","2.0"
"Mx8vIXApijMaRfRVx5CwheNj7R","sRPWARk8wXzRjwNYFCV7c96tAO",5376160,937,FALSE,28891,"['binary_statepop2', 'binary_statearea2', 'binary_gdp2']","['60', '49', '72']","2.0"
"Mx8vIXApijMaRfRVx5CwheNj7R","sRPWARk8wXzRjwNYFCV7c96tAO",5394162,938,FALSE,18000,"['time1', 'time2', 'time3']","['30', '49', '60']","2.0"
"Mx8vIXApijMaRfRVx5CwheNj7R","sRPWARk8wXzRjwNYFCV7c96tAO",5413066,939,FALSE,18901,"['time4', 'time5', 'time6']","['9', '15', '39']","2.0"
"Mx8vIXApijMaRfRVx5CwheNj7R","sRPWARk8wXzRjwNYFCV7c96tAO",5436248,940,FALSE,23179,"['space1', 'space2', 'space3']","['23', '50', '88']","2.0"
"Mx8vIXApijMaRfRVx5CwheNj7R","sRPWARk8wXzRjwNYFCV7c96tAO",5455386,941,FALSE,19136,"['space4', 'space5', 'space6']","['39', '49', '74']","2.0"
"Mx8vIXApijMaRfRVx5CwheNj7R","sRPWARk8wXzRjwNYFCV7c96tAO",5475354,942,FALSE,19965,"['confidence_interval1', 'confidence_interval2', 'confidence_interval3']","['49', '52', '60']","2.0"
"Scbpoqeq5cPbK4S6JgkDakbaJk","Koo6td3nw4YcorjR8C72YXgklR",6188109,629,FALSE,53111,"['trinary_A', 'trinary_B', 'trinary_C', 'trinary_AB', 'trinary_BC']","['30', '40', '49', '50', '70']","2.0"
"Scbpoqeq5cPbK4S6JgkDakbaJk","Koo6td3nw4YcorjR8C72YXgklR",6247249,630,FALSE,59138,"['binary_statepop1', 'binary_statearea1', 'binary_gdp1']","['65', '100', '69']","2.0"
"Scbpoqeq5cPbK4S6JgkDakbaJk","Koo6td3nw4YcorjR8C72YXgklR",6263175,631,FALSE,15924,"['binary_statepop2', 'binary_statearea2', 'binary_gdp2']","['33', '0', '40']","2.0"
"Scbpoqeq5cPbK4S6JgkDakbaJk","Koo6td3nw4YcorjR8C72YXgklR",6283498,632,FALSE,20320,"['time1', 'time2', 'time3']","['20', '45', '75']","2.0"
"Scbpoqeq5cPbK4S6JgkDakbaJk","Koo6td3nw4YcorjR8C72YXgklR",6297149,633,FALSE,13649,"['time4', 'time5', 'time6']","['50', '59', '79']","2.0"
"Scbpoqeq5cPbK4S6JgkDakbaJk","Koo6td3nw4YcorjR8C72YXgklR",6318437,634,FALSE,21286,"['space1', 'space2', 'space3']","['93', '89', '100']","2.0"
"Scbpoqeq5cPbK4S6JgkDakbaJk","Koo6td3nw4YcorjR8C72YXgklR",6330671,635,FALSE,12232,"['space4', 'space5', 'space6']","['89', '90', '91']","2.0"
"Scbpoqeq5cPbK4S6JgkDakbaJk","Koo6td3nw4YcorjR8C72YXgklR",6355791,636,FALSE,25118,"['confidence_interval1', 'confidence_interval2', 'confidence_interval3']","['70', '66', '60']","2.0"
"eFe95CeeQAgOoze8mvOzVQ4Hv6","VjYssdBmru7tOalICnyFgzyX5R",3110511,742,FALSE,39398,"['trinary_A', 'trinary_B', 'trinary_C', 'trinary_AB', 'trinary_BC']","['9', '15', '85', '15', '95']","3.0"
"eFe95CeeQAgOoze8mvOzVQ4Hv6","VjYssdBmru7tOalICnyFgzyX5R",3130507,743,FALSE,19995,"['binary_statepop1', 'binary_statearea1', 'binary_gdp1']","['84', '70', '88']","3.0"
"eFe95CeeQAgOoze8mvOzVQ4Hv6","VjYssdBmru7tOalICnyFgzyX5R",3142165,744,FALSE,11657,"['binary_statepop2', 'binary_statearea2', 'binary_gdp2']","['19', '27', '12']","3.0"
"eFe95CeeQAgOoze8mvOzVQ4Hv6","VjYssdBmru7tOalICnyFgzyX5R",3158043,745,FALSE,15877,"['time1', 'time2', 'time3']","['40', '50', '55']","3.0"
"eFe95CeeQAgOoze8mvOzVQ4Hv6","VjYssdBmru7tOalICnyFgzyX5R",3166903,746,FALSE,8859,"['time4', 'time5', 'time6']","['30', '35', '40']","3.0"
"eFe95CeeQAgOoze8mvOzVQ4Hv6","VjYssdBmru7tOalICnyFgzyX5R",3179659,747,FALSE,12754,"['space1', 'space2', 'space3']","['95', '100', '100']","3.0"
"eFe95CeeQAgOoze8mvOzVQ4Hv6","VjYssdBmru7tOalICnyFgzyX5R",3193182,748,FALSE,13523,"['space4', 'space5', 'space6']","['30', '40', '73']","3.0"
"eFe95CeeQAgOoze8mvOzVQ4Hv6","VjYssdBmru7tOalICnyFgzyX5R",3211502,749,FALSE,18319,"['confidence_interval1', 'confidence_interval2', 'confidence_interval3']","['44', '53', '79']","3.0"
"bArB5qhI33ayqzPdBGfvyVkjoA","XtClsJspMTdNEi1tNhwFIm9Eme",3570370,1165,FALSE,52359,"['trinary_A', 'trinary_B', 'trinary_C', 'trinary_AB', 'trinary_BC']","['30', '40', '85', '40', '100']","3.0"
"bArB5qhI33ayqzPdBGfvyVkjoA","XtClsJspMTdNEi1tNhwFIm9Eme",3598030,1166,FALSE,27653,"['binary_statepop1', 'binary_statearea1', 'binary_gdp1']","['65', '29', '80']","3.0"
"bArB5qhI33ayqzPdBGfvyVkjoA","XtClsJspMTdNEi1tNhwFIm9Eme",3617062,1167,FALSE,19025,"['binary_statepop2', 'binary_statearea2', 'binary_gdp2']","['34', '68', '20']","3.0"
"bArB5qhI33ayqzPdBGfvyVkjoA","XtClsJspMTdNEi1tNhwFIm9Eme",3629999,1168,FALSE,12928,"['time1', 'time2', 'time3']","['70', '81', '90']","3.0"
"bArB5qhI33ayqzPdBGfvyVkjoA","XtClsJspMTdNEi1tNhwFIm9Eme",3640013,1169,FALSE,10006,"['time4', 'time5', 'time6']","['39', '43', '45']","3.0"
"bArB5qhI33ayqzPdBGfvyVkjoA","XtClsJspMTdNEi1tNhwFIm9Eme",3657581,1170,FALSE,17563,"['space1', 'space2', 'space3']","['90', '100', '100']","3.0"
"bArB5qhI33ayqzPdBGfvyVkjoA","XtClsJspMTdNEi1tNhwFIm9Eme",3672021,1171,FALSE,14436,"['space4', 'space5', 'space6']","['80', '85', '99']","3.0"
"bArB5qhI33ayqzPdBGfvyVkjoA","XtClsJspMTdNEi1tNhwFIm9Eme",3694931,1172,FALSE,22902,"['confidence_interval1', 'confidence_interval2', 'confidence_interval3']","['49', '69', '84']","3.0"
"MEb7oXeDnmtQ0bC3VQKEpwBH12","9NAozSzIlnTayeZyZgRhswlCbv",470988,78,FALSE,47469,"['trinary_A', 'trinary_B', 'trinary_C', 'trinary_AB', 'trinary_BC']","['49', '59', '90', '40', '78']","2.0"
"MEb7oXeDnmtQ0bC3VQKEpwBH12","9NAozSzIlnTayeZyZgRhswlCbv",489543,79,FALSE,18551,"['binary_statepop1', 'binary_statearea1', 'binary_gdp1']","['99', '9', '70']","2.0"
"MEb7oXeDnmtQ0bC3VQKEpwBH12","9NAozSzIlnTayeZyZgRhswlCbv",512496,80,FALSE,22949,"['binary_statepop2', 'binary_statearea2', 'binary_gdp2']","['0', '100', '30']","2.0"
"MEb7oXeDnmtQ0bC3VQKEpwBH12","9NAozSzIlnTayeZyZgRhswlCbv",527952,81,FALSE,15453,"['time1', 'time2', 'time3']","['39', '50', '61']","2.0"
"MEb7oXeDnmtQ0bC3VQKEpwBH12","9NAozSzIlnTayeZyZgRhswlCbv",541372,82,FALSE,13417,"['time4', 'time5', 'time6']","['19', '29', '40']","2.0"
"MEb7oXeDnmtQ0bC3VQKEpwBH12","9NAozSzIlnTayeZyZgRhswlCbv",562093,83,FALSE,20719,"['space1', 'space2', 'space3']","['50', '70', '99']","2.0"
"MEb7oXeDnmtQ0bC3VQKEpwBH12","9NAozSzIlnTayeZyZgRhswlCbv",578275,84,FALSE,16178,"['space4', 'space5', 'space6']","['50', '60', '70']","2.0"
"MEb7oXeDnmtQ0bC3VQKEpwBH12","9NAozSzIlnTayeZyZgRhswlCbv",602696,85,FALSE,24419,"['confidence_interval1', 'confidence_interval2', 'confidence_interval3']","['49', '18', '30']","2.0"
"e93AKbQfQkjIawUmpnrHDyMCEn","r0TGG1ZeRumnSXFJlaV9vR7MW6",4094253,1103,FALSE,29251,"['trinary_A', 'trinary_B', 'trinary_C', 'trinary_AB', 'trinary_BC']","['80', '83', '19', '20', '6']","2.0"
"e93AKbQfQkjIawUmpnrHDyMCEn","r0TGG1ZeRumnSXFJlaV9vR7MW6",4115467,1104,FALSE,21207,"['binary_statepop1', 'binary_statearea1', 'binary_gdp1']","['60', '21', '48']","2.0"
"e93AKbQfQkjIawUmpnrHDyMCEn","r0TGG1ZeRumnSXFJlaV9vR7MW6",4132234,1105,FALSE,16763,"['binary_statepop2', 'binary_statearea2', 'binary_gdp2']","['25', '14', '41']","2.0"
"e93AKbQfQkjIawUmpnrHDyMCEn","r0TGG1ZeRumnSXFJlaV9vR7MW6",4157349,1106,FALSE,25111,"['time1', 'time2', 'time3']","['85', '93', '97']","2.0"
"e93AKbQfQkjIawUmpnrHDyMCEn","r0TGG1ZeRumnSXFJlaV9vR7MW6",4170521,1107,FALSE,13168,"['time4', 'time5', 'time6']","['21', '52', '83']","2.0"
"e93AKbQfQkjIawUmpnrHDyMCEn","r0TGG1ZeRumnSXFJlaV9vR7MW6",4186709,1108,FALSE,16183,"['space1', 'space2', 'space3']","['63', '82', '93']","2.0"
"e93AKbQfQkjIawUmpnrHDyMCEn","r0TGG1ZeRumnSXFJlaV9vR7MW6",4218018,1109,FALSE,31305,"['space4', 'space5', 'space6']","['20', '55', '99']","2.0"
"e93AKbQfQkjIawUmpnrHDyMCEn","r0TGG1ZeRumnSXFJlaV9vR7MW6",4237761,1110,FALSE,19739,"['confidence_interval1', 'confidence_interval2', 'confidence_interval3']","['57', '72', '80']","2.0"
"jD9DLaZo1jwq1HQt3MjwiFBWPC","f1zw8EDQKr0B2RlgBrCHUD06aA",104747,12,FALSE,69302,"['trinary_A', 'trinary_B', 'trinary_C', 'trinary_AB', 'trinary_BC']","['70', '79', '90', '10', '100']","2.0"
"jD9DLaZo1jwq1HQt3MjwiFBWPC","f1zw8EDQKr0B2RlgBrCHUD06aA",133558,13,FALSE,28810,"['binary_statepop1', 'binary_statearea1', 'binary_gdp1']","['100', '80', '79']","2.0"
"jD9DLaZo1jwq1HQt3MjwiFBWPC","f1zw8EDQKr0B2RlgBrCHUD06aA",151112,14,FALSE,17553,"['binary_statepop2', 'binary_statearea2', 'binary_gdp2']","['0', '30', '19']","2.0"
"jD9DLaZo1jwq1HQt3MjwiFBWPC","f1zw8EDQKr0B2RlgBrCHUD06aA",169113,15,FALSE,17999,"['time1', 'time2', 'time3']","['29', '34', '40']","2.0"
"jD9DLaZo1jwq1HQt3MjwiFBWPC","f1zw8EDQKr0B2RlgBrCHUD06aA",183809,16,FALSE,14695,"['time4', 'time5', 'time6']","['10', '12', '16']","2.0"
"jD9DLaZo1jwq1HQt3MjwiFBWPC","f1zw8EDQKr0B2RlgBrCHUD06aA",207449,17,FALSE,23639,"['space1', 'space2', 'space3']","['97', '100', '100']","2.0"
"jD9DLaZo1jwq1HQt3MjwiFBWPC","f1zw8EDQKr0B2RlgBrCHUD06aA",228994,18,FALSE,21544,"['space4', 'space5', 'space6']","['90', '94', '100']","2.0"
"jD9DLaZo1jwq1HQt3MjwiFBWPC","f1zw8EDQKr0B2RlgBrCHUD06aA",260188,19,FALSE,31193,"['confidence_interval1', 'confidence_interval2', 'confidence_interval3']","['80', '85', '87']","2.0"
"ta2uwIm5tNBrAjeo5kjrWFX4rg","gwi1uKFa5uP0lnIovraWhhZ9ws",4124261,1267,FALSE,60558,"['trinary_A', 'trinary_B', 'trinary_C', 'trinary_AB', 'trinary_BC']","['10', '21', '99', '4', '71']","3.0"
"ta2uwIm5tNBrAjeo5kjrWFX4rg","gwi1uKFa5uP0lnIovraWhhZ9ws",4143393,1268,FALSE,19128,"['binary_statepop1', 'binary_statearea1', 'binary_gdp1']","['35', '50', '49']","3.0"
"ta2uwIm5tNBrAjeo5kjrWFX4rg","gwi1uKFa5uP0lnIovraWhhZ9ws",4160281,1269,FALSE,16884,"['binary_statepop2', 'binary_statearea2', 'binary_gdp2']","['40', '49', '54']","3.0"
"ta2uwIm5tNBrAjeo5kjrWFX4rg","gwi1uKFa5uP0lnIovraWhhZ9ws",4179405,1270,FALSE,19120,"['time1', 'time2', 'time3']","['61', '59', '64']","3.0"
"ta2uwIm5tNBrAjeo5kjrWFX4rg","gwi1uKFa5uP0lnIovraWhhZ9ws",4191836,1271,FALSE,12428,"['time4', 'time5', 'time6']","['50', '50', '50']","3.0"
"ta2uwIm5tNBrAjeo5kjrWFX4rg","gwi1uKFa5uP0lnIovraWhhZ9ws",4209730,1272,FALSE,17890,"['space1', 'space2', 'space3']","['71', '79', '90']","3.0"
"ta2uwIm5tNBrAjeo5kjrWFX4rg","gwi1uKFa5uP0lnIovraWhhZ9ws",4231080,1273,FALSE,21347,"['space4', 'space5', 'space6']","['50', '60', '79']","3.0"
"ta2uwIm5tNBrAjeo5kjrWFX4rg","gwi1uKFa5uP0lnIovraWhhZ9ws",4250443,1274,FALSE,19359,"['confidence_interval1', 'confidence_interval2', 'confidence_interval3']","['39', '50', '50']","3.0"
"C6FdaOsLL8vp2sdEAFgmzZ0hf3","SzS7arHMhlzKZx0dpCAQb5EaO9",2284545,291,FALSE,52790,"['trinary_A', 'trinary_B', 'trinary_C', 'trinary_AB', 'trinary_BC']","['9', '0', '30', '0', '84']","2.0"
"C6FdaOsLL8vp2sdEAFgmzZ0hf3","SzS7arHMhlzKZx0dpCAQb5EaO9",2308782,292,FALSE,24233,"['binary_statepop1', 'binary_statearea1', 'binary_gdp1']","['50', '40', '100']","2.0"
"C6FdaOsLL8vp2sdEAFgmzZ0hf3","SzS7arHMhlzKZx0dpCAQb5EaO9",2327575,293,FALSE,18790,"['binary_statepop2', 'binary_statearea2', 'binary_gdp2']","['30', '28', '42']","2.0"
"C6FdaOsLL8vp2sdEAFgmzZ0hf3","SzS7arHMhlzKZx0dpCAQb5EaO9",2343825,294,FALSE,16246,"['time1', 'time2', 'time3']","['100', '100', '32']","2.0"
"C6FdaOsLL8vp2sdEAFgmzZ0hf3","SzS7arHMhlzKZx0dpCAQb5EaO9",2358075,295,FALSE,14245,"['time4', 'time5', 'time6']","['9', '10', '20']","2.0"
"C6FdaOsLL8vp2sdEAFgmzZ0hf3","SzS7arHMhlzKZx0dpCAQb5EaO9",2419079,296,TRUE,61000,"['space1', 'space2', 'space3']","['0', '0', '0']","2.0"
"C6FdaOsLL8vp2sdEAFgmzZ0hf3","SzS7arHMhlzKZx0dpCAQb5EaO9",2428447,297,FALSE,9365,"['space4', 'space5', 'space6']","['21', '28', '22']","2.0"
"C6FdaOsLL8vp2sdEAFgmzZ0hf3","SzS7arHMhlzKZx0dpCAQb5EaO9",2455379,298,FALSE,26930,"['confidence_interval1', 'confidence_interval2', 'confidence_interval3']","['50', '39', '51']","2.0"
"tbCTQoAafrGj5o6gPjlOQQ6qwi","pwlPELCrjkCJEZrgVTkfFDQT0T",12329859,699,FALSE,25305,"['trinary_A', 'trinary_B', 'trinary_C', 'trinary_AB', 'trinary_BC']","['10', '18', '99', '9', '98']","3.0"
"tbCTQoAafrGj5o6gPjlOQQ6qwi","pwlPELCrjkCJEZrgVTkfFDQT0T",12343005,700,FALSE,13144,"['binary_statepop1', 'binary_statearea1', 'binary_gdp1']","['70', '39', '60']","3.0"
"tbCTQoAafrGj5o6gPjlOQQ6qwi","pwlPELCrjkCJEZrgVTkfFDQT0T",12358555,701,FALSE,15549,"['binary_statepop2', 'binary_statearea2', 'binary_gdp2']","['60', '80', '59']","3.0"
"tbCTQoAafrGj5o6gPjlOQQ6qwi","pwlPELCrjkCJEZrgVTkfFDQT0T",12373851,702,FALSE,15294,"['time1', 'time2', 'time3']","['70', '90', '89']","3.0"
"tbCTQoAafrGj5o6gPjlOQQ6qwi","pwlPELCrjkCJEZrgVTkfFDQT0T",12381263,703,FALSE,7410,"['time4', 'time5', 'time6']","['90', '90', '89']","3.0"
"tbCTQoAafrGj5o6gPjlOQQ6qwi","pwlPELCrjkCJEZrgVTkfFDQT0T",12394400,704,FALSE,13135,"['space1', 'space2', 'space3']","['90', '78', '79']","3.0"
"tbCTQoAafrGj5o6gPjlOQQ6qwi","pwlPELCrjkCJEZrgVTkfFDQT0T",12406248,705,FALSE,11846,"['space4', 'space5', 'space6']","['100', '98', '98']","3.0"
"tbCTQoAafrGj5o6gPjlOQQ6qwi","pwlPELCrjkCJEZrgVTkfFDQT0T",12417432,706,FALSE,11182,"['confidence_interval1', 'confidence_interval2', 'confidence_interval3']","['70', '79', '70']","3.0"
"qy2ies2MnUrMAg3lka97bXkkxI","mculQR8IUlq2JRACpF34aZtwYL",5094644,1334,FALSE,49323,"['trinary_A', 'trinary_B', 'trinary_C', 'trinary_AB', 'trinary_BC']","['100', '100', '100', '100', '100']","3.0"
"qy2ies2MnUrMAg3lka97bXkkxI","mculQR8IUlq2JRACpF34aZtwYL",5126188,1335,FALSE,31543,"['binary_statepop1', 'binary_statearea1', 'binary_gdp1']","['100', '0', '100']","3.0"
"qy2ies2MnUrMAg3lka97bXkkxI","mculQR8IUlq2JRACpF34aZtwYL",5140328,1336,FALSE,14139,"['binary_statepop2', 'binary_statearea2', 'binary_gdp2']","['0', '100', '0']","3.0"
"qy2ies2MnUrMAg3lka97bXkkxI","mculQR8IUlq2JRACpF34aZtwYL",5154594,1337,FALSE,14264,"['time1', 'time2', 'time3']","['3', '7', '10']","3.0"
"qy2ies2MnUrMAg3lka97bXkkxI","mculQR8IUlq2JRACpF34aZtwYL",5165780,1338,FALSE,11185,"['time4', 'time5', 'time6']","['4', '6', '10']","3.0"
"qy2ies2MnUrMAg3lka97bXkkxI","mculQR8IUlq2JRACpF34aZtwYL",5183906,1339,FALSE,18125,"['space1', 'space2', 'space3']","['95', '98', '100']","3.0"
"qy2ies2MnUrMAg3lka97bXkkxI","mculQR8IUlq2JRACpF34aZtwYL",5196220,1340,FALSE,12313,"['space4', 'space5', 'space6']","['50', '59', '70']","3.0"
"qy2ies2MnUrMAg3lka97bXkkxI","mculQR8IUlq2JRACpF34aZtwYL",5214659,1341,FALSE,18437,"['confidence_interval1', 'confidence_interval2', 'confidence_interval3']","['70', '80', '90']","3.0"
"biu5BgZV2AePGJMpaEXIG7u0N3","MxUO7NYXSHEzSTEPowvnyo0Gds",3092767,495,FALSE,43632,"['trinary_A', 'trinary_B', 'trinary_C', 'trinary_AB', 'trinary_BC']","['20', '40', '90', '2', '100']","3.0"
"biu5BgZV2AePGJMpaEXIG7u0N3","MxUO7NYXSHEzSTEPowvnyo0Gds",3120154,496,FALSE,27384,"['binary_statepop1', 'binary_statearea1', 'binary_gdp1']","['100', '50', '80']","3.0"
"biu5BgZV2AePGJMpaEXIG7u0N3","MxUO7NYXSHEzSTEPowvnyo0Gds",3152373,497,FALSE,32217,"['binary_statepop2', 'binary_statearea2', 'binary_gdp2']","['20', '49', '20']","3.0"
"biu5BgZV2AePGJMpaEXIG7u0N3","MxUO7NYXSHEzSTEPowvnyo0Gds",3177351,498,FALSE,24976,"['time1', 'time2', 'time3']","['2', '8', '11']","3.0"
"biu5BgZV2AePGJMpaEXIG7u0N3","MxUO7NYXSHEzSTEPowvnyo0Gds",3192240,499,FALSE,14887,"['time4', 'time5', 'time6']","['9', '14', '25']","3.0"
"biu5BgZV2AePGJMpaEXIG7u0N3","MxUO7NYXSHEzSTEPowvnyo0Gds",3236347,500,FALSE,44105,"['space1', 'space2', 'space3']","['20', '20', '20']","3.0"
"biu5BgZV2AePGJMpaEXIG7u0N3","MxUO7NYXSHEzSTEPowvnyo0Gds",3259354,501,FALSE,23006,"['space4', 'space5', 'space6']","['9', '16', '23']","3.0"
"biu5BgZV2AePGJMpaEXIG7u0N3","MxUO7NYXSHEzSTEPowvnyo0Gds",3290000,502,FALSE,30644,"['confidence_interval1', 'confidence_interval2', 'confidence_interval3']","['2', '6', '9']","3.0"
"Itq6YDWXogHpqw9eUguLicnSnw","ifEhbrqrmUNVEo1tB64Wf7mgVa",3306285,804,FALSE,42928,"['trinary_A', 'trinary_B', 'trinary_C', 'trinary_AB', 'trinary_BC']","['9', '10', '90', '13', '88']","2.0"
"Itq6YDWXogHpqw9eUguLicnSnw","ifEhbrqrmUNVEo1tB64Wf7mgVa",3340677,805,FALSE,34390,"['binary_statepop1', 'binary_statearea1', 'binary_gdp1']","['69', '71', '98']","2.0"
"Itq6YDWXogHpqw9eUguLicnSnw","ifEhbrqrmUNVEo1tB64Wf7mgVa",3361199,806,FALSE,20521,"['binary_statepop2', 'binary_statearea2', 'binary_gdp2']","['31', '27', '1']","2.0"
"Itq6YDWXogHpqw9eUguLicnSnw","ifEhbrqrmUNVEo1tB64Wf7mgVa",3385913,807,FALSE,24712,"['time1', 'time2', 'time3']","['6', '3', '1']","2.0"
"Itq6YDWXogHpqw9eUguLicnSnw","ifEhbrqrmUNVEo1tB64Wf7mgVa",3416502,808,FALSE,30589,"['time4', 'time5', 'time6']","['8', '5', '2']","2.0"
"Itq6YDWXogHpqw9eUguLicnSnw","ifEhbrqrmUNVEo1tB64Wf7mgVa",3435913,809,FALSE,19410,"['space1', 'space2', 'space3']","['94', '97', '100']","2.0"
"Itq6YDWXogHpqw9eUguLicnSnw","ifEhbrqrmUNVEo1tB64Wf7mgVa",3463174,810,FALSE,27259,"['space4', 'space5', 'space6']","['6', '10', '15']","2.0"
"Itq6YDWXogHpqw9eUguLicnSnw","ifEhbrqrmUNVEo1tB64Wf7mgVa",3520992,811,FALSE,57818,"['confidence_interval1', 'confidence_interval2', 'confidence_interval3']","['70', '82', '93']","2.0"
"2bka8DkhxCpWogLHxC1m5mlG7F","uxi1XdrxsOPl59DacHUosq9qLp",3110299,1221,FALSE,43755,"['trinary_A', 'trinary_B', 'trinary_C', 'trinary_AB', 'trinary_BC']","['9', '20', '49', '89', '50']","2.0"
"2bka8DkhxCpWogLHxC1m5mlG7F","uxi1XdrxsOPl59DacHUosq9qLp",3131380,1222,FALSE,21077,"['binary_statepop1', 'binary_statearea1', 'binary_gdp1']","['100', '100', '50']","2.0"
"2bka8DkhxCpWogLHxC1m5mlG7F","uxi1XdrxsOPl59DacHUosq9qLp",3150629,1223,FALSE,19245,"['binary_statepop2', 'binary_statearea2', 'binary_gdp2']","['0', '0', '51']","2.0"
"2bka8DkhxCpWogLHxC1m5mlG7F","uxi1XdrxsOPl59DacHUosq9qLp",3164960,1224,FALSE,14327,"['time1', 'time2', 'time3']","['50', '49', '49']","2.0"
"2bka8DkhxCpWogLHxC1m5mlG7F","uxi1XdrxsOPl59DacHUosq9qLp",3182039,1225,FALSE,17075,"['time4', 'time5', 'time6']","['50', '60', '70']","2.0"
"2bka8DkhxCpWogLHxC1m5mlG7F","uxi1XdrxsOPl59DacHUosq9qLp",3203082,1226,FALSE,21040,"['space1', 'space2', 'space3']","['50', '49', '49']","2.0"
"2bka8DkhxCpWogLHxC1m5mlG7F","uxi1XdrxsOPl59DacHUosq9qLp",3223778,1227,FALSE,20693,"['space4', 'space5', 'space6']","['80', '69', '59']","2.0"
"2bka8DkhxCpWogLHxC1m5mlG7F","uxi1XdrxsOPl59DacHUosq9qLp",3233174,1228,FALSE,9393,"['confidence_interval1', 'confidence_interval2', 'confidence_interval3']","['49', '60', '39']","2.0"
"haM8gzenfiOZvco8ocxKJo9hW8","xOqsGJM9dsJBiQmYq3CX0apP3d",1521439,546,FALSE,26142,"['trinary_A', 'trinary_B', 'trinary_C', 'trinary_AB', 'trinary_BC']","['40', '54', '79', '59', '100']","3.0"
"haM8gzenfiOZvco8ocxKJo9hW8","xOqsGJM9dsJBiQmYq3CX0apP3d",1535262,547,FALSE,13822,"['binary_statepop1', 'binary_statearea1', 'binary_gdp1']","['30', '79', '50']","3.0"
"haM8gzenfiOZvco8ocxKJo9hW8","xOqsGJM9dsJBiQmYq3CX0apP3d",1545341,548,FALSE,10078,"['binary_statepop2', 'binary_statearea2', 'binary_gdp2']","['80', '19', '49']","3.0"
"haM8gzenfiOZvco8ocxKJo9hW8","xOqsGJM9dsJBiQmYq3CX0apP3d",1559205,549,FALSE,13862,"['time1', 'time2', 'time3']","['30', '40', '49']","3.0"
"haM8gzenfiOZvco8ocxKJo9hW8","xOqsGJM9dsJBiQmYq3CX0apP3d",1568902,550,FALSE,9696,"['time4', 'time5', 'time6']","['49', '49', '50']","3.0"
"haM8gzenfiOZvco8ocxKJo9hW8","xOqsGJM9dsJBiQmYq3CX0apP3d",1585659,551,FALSE,16756,"['space1', 'space2', 'space3']","['70', '80', '100']","3.0"
"haM8gzenfiOZvco8ocxKJo9hW8","xOqsGJM9dsJBiQmYq3CX0apP3d",1596379,552,FALSE,10719,"['space4', 'space5', 'space6']","['80', '89', '100']","3.0"
"haM8gzenfiOZvco8ocxKJo9hW8","xOqsGJM9dsJBiQmYq3CX0apP3d",1605450,553,FALSE,9070,"['confidence_interval1', 'confidence_interval2', 'confidence_interval3']","['50', '50', '50']","3.0"
"Ev2q5ZLI9arbNnB0IydGIw1Ms4","fLGVVYnLaslcLD1uJBoQg3rLBE",1318797,126,FALSE,60016,"['trinary_A', 'trinary_B', 'trinary_C', 'trinary_AB', 'trinary_BC']","['0', '0', '100', '0', '100']","2.0"
"Ev2q5ZLI9arbNnB0IydGIw1Ms4","fLGVVYnLaslcLD1uJBoQg3rLBE",1337447,127,FALSE,18647,"['binary_statepop1', 'binary_statearea1', 'binary_gdp1']","['49', '49', '50']","2.0"
"Ev2q5ZLI9arbNnB0IydGIw1Ms4","fLGVVYnLaslcLD1uJBoQg3rLBE",1346580,128,FALSE,9130,"['binary_statepop2', 'binary_statearea2', 'binary_gdp2']","['50', '50', '49']","2.0"
"Ev2q5ZLI9arbNnB0IydGIw1Ms4","fLGVVYnLaslcLD1uJBoQg3rLBE",1355664,129,FALSE,9080,"['time1', 'time2', 'time3']","['49', '49', '51']","2.0"
"Ev2q5ZLI9arbNnB0IydGIw1Ms4","fLGVVYnLaslcLD1uJBoQg3rLBE",1371429,130,FALSE,15763,"['time4', 'time5', 'time6']","['49', '50', '49']","2.0"
"Ev2q5ZLI9arbNnB0IydGIw1Ms4","fLGVVYnLaslcLD1uJBoQg3rLBE",1379131,131,FALSE,7699,"['space1', 'space2', 'space3']","['51', '50', '50']","2.0"
"Ev2q5ZLI9arbNnB0IydGIw1Ms4","fLGVVYnLaslcLD1uJBoQg3rLBE",1386480,132,FALSE,7346,"['space4', 'space5', 'space6']","['49', '50', '49']","2.0"
"Ev2q5ZLI9arbNnB0IydGIw1Ms4","fLGVVYnLaslcLD1uJBoQg3rLBE",1399064,133,FALSE,12582,"['confidence_interval1', 'confidence_interval2', 'confidence_interval3']","['50', '50', '50']","2.0"
"8M8VKFcBeQZ2iUhV3RNIMF1N8Q","Eu6zPcb9jv0kZ1zXSzYnyIfInM",269364,27,FALSE,24181,"['trinary_A', 'trinary_B', 'trinary_C', 'trinary_AB', 'trinary_BC']","['9', '19', '79', '20', '89']","2.0"
"8M8VKFcBeQZ2iUhV3RNIMF1N8Q","Eu6zPcb9jv0kZ1zXSzYnyIfInM",292058,28,FALSE,22692,"['binary_statepop1', 'binary_statearea1', 'binary_gdp1']","['30', '50', '70']","2.0"
"8M8VKFcBeQZ2iUhV3RNIMF1N8Q","Eu6zPcb9jv0kZ1zXSzYnyIfInM",317589,29,FALSE,25528,"['binary_statepop2', 'binary_statearea2', 'binary_gdp2']","['30', '50', '19']","2.0"
"8M8VKFcBeQZ2iUhV3RNIMF1N8Q","Eu6zPcb9jv0kZ1zXSzYnyIfInM",330952,30,FALSE,13358,"['time1', 'time2', 'time3']","['69', '79', '89']","2.0"
"8M8VKFcBeQZ2iUhV3RNIMF1N8Q","Eu6zPcb9jv0kZ1zXSzYnyIfInM",345501,31,FALSE,14545,"['time4', 'time5', 'time6']","['49', '60', '70']","2.0"
"8M8VKFcBeQZ2iUhV3RNIMF1N8Q","Eu6zPcb9jv0kZ1zXSzYnyIfInM",365363,32,FALSE,19859,"['space1', 'space2', 'space3']","['70', '88', '100']","2.0"
"8M8VKFcBeQZ2iUhV3RNIMF1N8Q","Eu6zPcb9jv0kZ1zXSzYnyIfInM",378646,33,FALSE,13279,"['space4', 'space5', 'space6']","['69', '79', '99']","2.0"
"8M8VKFcBeQZ2iUhV3RNIMF1N8Q","Eu6zPcb9jv0kZ1zXSzYnyIfInM",393282,34,FALSE,14632,"['confidence_interval1', 'confidence_interval2', 'confidence_interval3']","['49', '49', '49']","2.0"
"InuVSSgb9zkRgNy4sBB990gX9a","gav3oBa6HBQDe2QUKqIRRL3Uzx",4242023,1234,TRUE,101002,"['trinary_A', 'trinary_B', 'trinary_C', 'trinary_AB', 'trinary_BC']","['29', '10', '89', '10', '89']","3.0"
"InuVSSgb9zkRgNy4sBB990gX9a","gav3oBa6HBQDe2QUKqIRRL3Uzx",4280405,1235,FALSE,38379,"['binary_statepop1', 'binary_statearea1', 'binary_gdp1']","['79', '10', '70']","3.0"
"InuVSSgb9zkRgNy4sBB990gX9a","gav3oBa6HBQDe2QUKqIRRL3Uzx",4307850,1236,FALSE,27443,"['binary_statepop2', 'binary_statearea2', 'binary_gdp2']","['20', '80', '19']","3.0"
"InuVSSgb9zkRgNy4sBB990gX9a","gav3oBa6HBQDe2QUKqIRRL3Uzx",4345631,1237,FALSE,37777,"['time1', 'time2', 'time3']","['70', '79', '90']","3.0"
"InuVSSgb9zkRgNy4sBB990gX9a","gav3oBa6HBQDe2QUKqIRRL3Uzx",4381738,1238,FALSE,36105,"['time4', 'time5', 'time6']","['60', '70', '80']","3.0"
"InuVSSgb9zkRgNy4sBB990gX9a","gav3oBa6HBQDe2QUKqIRRL3Uzx",4404746,1239,FALSE,23005,"['space1', 'space2', 'space3']","['80', '90', '100']","3.0"
"InuVSSgb9zkRgNy4sBB990gX9a","gav3oBa6HBQDe2QUKqIRRL3Uzx",4423122,1240,FALSE,18373,"['space4', 'space5', 'space6']","['60', '70', '89']","3.0"
"InuVSSgb9zkRgNy4sBB990gX9a","gav3oBa6HBQDe2QUKqIRRL3Uzx",4440617,1241,FALSE,17492,"['confidence_interval1', 'confidence_interval2', 'confidence_interval3']","['50', '50', '50']","3.0"
"dYGsqbBUw2jxZFU5A1H7OG25F1","C9fu6ZL6YnGCdCQllG6YnrMjpF",7705220,135,FALSE,85728,"['trinary_A', 'trinary_B', 'trinary_C', 'trinary_AB', 'trinary_BC']","['30', '40', '80', '9', '80']","2.0"
"dYGsqbBUw2jxZFU5A1H7OG25F1","C9fu6ZL6YnGCdCQllG6YnrMjpF",7729027,136,FALSE,23791,"['binary_statepop1', 'binary_statearea1', 'binary_gdp1']","['90', '49', '69']","2.0"
"dYGsqbBUw2jxZFU5A1H7OG25F1","C9fu6ZL6YnGCdCQllG6YnrMjpF",7751669,137,FALSE,22629,"['binary_statepop2', 'binary_statearea2', 'binary_gdp2']","['11', '50', '30']","2.0"
"dYGsqbBUw2jxZFU5A1H7OG25F1","C9fu6ZL6YnGCdCQllG6YnrMjpF",7772986,138,FALSE,21307,"['time1', 'time2', 'time3']","['50', '60', '90']","2.0"
"dYGsqbBUw2jxZFU5A1H7OG25F1","C9fu6ZL6YnGCdCQllG6YnrMjpF",7805660,139,FALSE,32660,"['time4', 'time5', 'time6']","['50', '30', '39']","2.0"
"dYGsqbBUw2jxZFU5A1H7OG25F1","C9fu6ZL6YnGCdCQllG6YnrMjpF",7832996,140,FALSE,27322,"['space1', 'space2', 'space3']","['71', '80', '100']","2.0"
"dYGsqbBUw2jxZFU5A1H7OG25F1","C9fu6ZL6YnGCdCQllG6YnrMjpF",7853226,141,FALSE,20221,"['space4', 'space5', 'space6']","['60', '70', '100']","2.0"
"dYGsqbBUw2jxZFU5A1H7OG25F1","C9fu6ZL6YnGCdCQllG6YnrMjpF",7872462,142,FALSE,19224,"['confidence_interval1', 'confidence_interval2', 'confidence_interval3']","['30', '30', '30']","2.0"
"E3zMBre7EWQqIFWrLWlBW7xF35","8dl4eHPAHF9qFgZ1NN8pxplDPY",3393958,1229,FALSE,25676,"['trinary_A', 'trinary_B', 'trinary_C', 'trinary_AB', 'trinary_BC']","['35', '40', '80', '46', '72']","3.0"
"E3zMBre7EWQqIFWrLWlBW7xF35","8dl4eHPAHF9qFgZ1NN8pxplDPY",3406841,1230,FALSE,12882,"['binary_statepop1', 'binary_statearea1', 'binary_gdp1']","['60', '100', '80']","3.0"
"E3zMBre7EWQqIFWrLWlBW7xF35","8dl4eHPAHF9qFgZ1NN8pxplDPY",3424303,1231,FALSE,17461,"['binary_statepop2', 'binary_statearea2', 'binary_gdp2']","['25', '1', '25']","3.0"
"E3zMBre7EWQqIFWrLWlBW7xF35","8dl4eHPAHF9qFgZ1NN8pxplDPY",3441795,1232,FALSE,17490,"['time1', 'time2', 'time3']","['59', '65', '67']","3.0"
"E3zMBre7EWQqIFWrLWlBW7xF35","8dl4eHPAHF9qFgZ1NN8pxplDPY",3452008,1233,FALSE,10211,"['time4', 'time5', 'time6']","['34', '37', '40']","3.0"
"E3zMBre7EWQqIFWrLWlBW7xF35","8dl4eHPAHF9qFgZ1NN8pxplDPY",3473716,1234,FALSE,21707,"['space1', 'space2', 'space3']","['79', '86', '94']","3.0"
"E3zMBre7EWQqIFWrLWlBW7xF35","8dl4eHPAHF9qFgZ1NN8pxplDPY",3500336,1235,FALSE,26618,"['space4', 'space5', 'space6']","['35', '33', '32']","3.0"
"E3zMBre7EWQqIFWrLWlBW7xF35","8dl4eHPAHF9qFgZ1NN8pxplDPY",3514175,1236,FALSE,13834,"['confidence_interval1', 'confidence_interval2', 'confidence_interval3']","['46', '54', '51']","3.0"
"ZT0jyke8Yvldqb506vgclgoazI","gQ71eSoOo6Ah16HDelPatWOwiG",389676,91,FALSE,35074,"['trinary_A', 'trinary_B', 'trinary_C', 'trinary_AB', 'trinary_BC']","['12', '19', '70', '30', '94']","3.0"
"ZT0jyke8Yvldqb506vgclgoazI","gQ71eSoOo6Ah16HDelPatWOwiG",405551,92,FALSE,15874,"['binary_statepop1', 'binary_statearea1', 'binary_gdp1']","['70', '20', '82']","3.0"
"ZT0jyke8Yvldqb506vgclgoazI","gQ71eSoOo6Ah16HDelPatWOwiG",417991,93,FALSE,12439,"['binary_statepop2', 'binary_statearea2', 'binary_gdp2']","['30', '75', '23']","3.0"
"ZT0jyke8Yvldqb506vgclgoazI","gQ71eSoOo6Ah16HDelPatWOwiG",428225,94,FALSE,10233,"['time1', 'time2', 'time3']","['60', '72', '80']","3.0"
"ZT0jyke8Yvldqb506vgclgoazI","gQ71eSoOo6Ah16HDelPatWOwiG",436990,95,FALSE,8764,"['time4', 'time5', 'time6']","['79', '87', '94']","3.0"
"ZT0jyke8Yvldqb506vgclgoazI","gQ71eSoOo6Ah16HDelPatWOwiG",451572,96,FALSE,14581,"['space1', 'space2', 'space3']","['70', '80', '90']","3.0"
"ZT0jyke8Yvldqb506vgclgoazI","gQ71eSoOo6Ah16HDelPatWOwiG",465022,97,FALSE,13449,"['space4', 'space5', 'space6']","['40', '46', '55']","3.0"
"ZT0jyke8Yvldqb506vgclgoazI","gQ71eSoOo6Ah16HDelPatWOwiG",479178,98,FALSE,14155,"['confidence_interval1', 'confidence_interval2', 'confidence_interval3']","['40', '46', '54']","3.0"
"MHzEVEOUqQdyi9lBwTBhVZB0yz","dFfUA2D0zXIpJWKvKAXMa2MV4K",4247552,1216,FALSE,32683,"['trinary_A', 'trinary_B', 'trinary_C', 'trinary_AB', 'trinary_BC']","['79', '80', '80', '60', '70']","3.0"
"MHzEVEOUqQdyi9lBwTBhVZB0yz","dFfUA2D0zXIpJWKvKAXMa2MV4K",4263376,1217,FALSE,15821,"['binary_statepop1', 'binary_statearea1', 'binary_gdp1']","['80', '49', '50']","3.0"
"MHzEVEOUqQdyi9lBwTBhVZB0yz","dFfUA2D0zXIpJWKvKAXMa2MV4K",4272554,1218,FALSE,9174,"['binary_statepop2', 'binary_statearea2', 'binary_gdp2']","['59', '59', '59']","3.0"
"MHzEVEOUqQdyi9lBwTBhVZB0yz","dFfUA2D0zXIpJWKvKAXMa2MV4K",4283969,1219,FALSE,11412,"['time1', 'time2', 'time3']","['70', '69', '69']","3.0"
"MHzEVEOUqQdyi9lBwTBhVZB0yz","dFfUA2D0zXIpJWKvKAXMa2MV4K",4290275,1220,FALSE,6304,"['time4', 'time5', 'time6']","['70', '70', '70']","3.0"
"MHzEVEOUqQdyi9lBwTBhVZB0yz","dFfUA2D0zXIpJWKvKAXMa2MV4K",4297389,1221,FALSE,7111,"['space1', 'space2', 'space3']","['80', '80', '79']","3.0"
"MHzEVEOUqQdyi9lBwTBhVZB0yz","dFfUA2D0zXIpJWKvKAXMa2MV4K",4303700,1222,FALSE,6308,"['space4', 'space5', 'space6']","['69', '70', '70']","3.0"
"MHzEVEOUqQdyi9lBwTBhVZB0yz","dFfUA2D0zXIpJWKvKAXMa2MV4K",4314597,1223,FALSE,10894,"['confidence_interval1', 'confidence_interval2', 'confidence_interval3']","['78', '78', '70']","3.0"
"CZ6NQEOfRqsY44RJ2lktZVRGRA","yi4vroFvczRyyTDshQZzBZkGeH",3554358,1296,FALSE,25447,"['trinary_A', 'trinary_B', 'trinary_C', 'trinary_AB', 'trinary_BC']","['1', '8', '100', '0', '100']","3.0"
"CZ6NQEOfRqsY44RJ2lktZVRGRA","yi4vroFvczRyyTDshQZzBZkGeH",3571519,1297,FALSE,17159,"['binary_statepop1', 'binary_statearea1', 'binary_gdp1']","['60', '89', '50']","3.0"
"CZ6NQEOfRqsY44RJ2lktZVRGRA","yi4vroFvczRyyTDshQZzBZkGeH",3588573,1298,FALSE,17052,"['binary_statepop2', 'binary_statearea2', 'binary_gdp2']","['50', '4', '47']","3.0"
"CZ6NQEOfRqsY44RJ2lktZVRGRA","yi4vroFvczRyyTDshQZzBZkGeH",3603253,1299,FALSE,14677,"['time1', 'time2', 'time3']","['69', '90', '100']","3.0"
"CZ6NQEOfRqsY44RJ2lktZVRGRA","yi4vroFvczRyyTDshQZzBZkGeH",3613285,1300,FALSE,10030,"['time4', 'time5', 'time6']","['40', '51', '70']","3.0"
"CZ6NQEOfRqsY44RJ2lktZVRGRA","yi4vroFvczRyyTDshQZzBZkGeH",3638831,1301,FALSE,25544,"['space1', 'space2', 'space3']","['59', '70', '99']","3.0"
"CZ6NQEOfRqsY44RJ2lktZVRGRA","yi4vroFvczRyyTDshQZzBZkGeH",3655753,1302,FALSE,16920,"['space4', 'space5', 'space6']","['69', '81', '100']","3.0"
"CZ6NQEOfRqsY44RJ2lktZVRGRA","yi4vroFvczRyyTDshQZzBZkGeH",3670171,1303,FALSE,14416,"['confidence_interval1', 'confidence_interval2', 'confidence_interval3']","['40', '51', '80']","3.0"
"o9cl9d8I9GR8WwsVdnJfEPnqyR","JSmtZPSRKwaYA3VSSe0dkN8U6f",408364,366,FALSE,23618,"['trinary_A', 'trinary_B', 'trinary_C', 'trinary_AB', 'trinary_BC']","['48', '40', '42', '40', '40']","2.0"
"o9cl9d8I9GR8WwsVdnJfEPnqyR","JSmtZPSRKwaYA3VSSe0dkN8U6f",415478,367,FALSE,7106,"['binary_statepop1', 'binary_statearea1', 'binary_gdp1']","['46', '44', '43']","2.0"
"o9cl9d8I9GR8WwsVdnJfEPnqyR","JSmtZPSRKwaYA3VSSe0dkN8U6f",427893,368,FALSE,12409,"['binary_statepop2', 'binary_statearea2', 'binary_gdp2']","['44', '41', '46']","2.0"
"o9cl9d8I9GR8WwsVdnJfEPnqyR","JSmtZPSRKwaYA3VSSe0dkN8U6f",436024,369,FALSE,8126,"['time1', 'time2', 'time3']","['44', '50', '44']","2.0"
"o9cl9d8I9GR8WwsVdnJfEPnqyR","JSmtZPSRKwaYA3VSSe0dkN8U6f",448163,370,FALSE,12134,"['time4', 'time5', 'time6']","['46', '43', '47']","2.0"
"o9cl9d8I9GR8WwsVdnJfEPnqyR","JSmtZPSRKwaYA3VSSe0dkN8U6f",456549,371,FALSE,8381,"['space1', 'space2', 'space3']","['40', '43', '49']","2.0"
"o9cl9d8I9GR8WwsVdnJfEPnqyR","JSmtZPSRKwaYA3VSSe0dkN8U6f",463337,372,FALSE,6782,"['space4', 'space5', 'space6']","['48', '49', '47']","2.0"
"o9cl9d8I9GR8WwsVdnJfEPnqyR","JSmtZPSRKwaYA3VSSe0dkN8U6f",477123,373,FALSE,13780,"['confidence_interval1', 'confidence_interval2', 'confidence_interval3']","['51', '47', '51']","2.0"
"TmDcNAe6FRG5OYjfe8OcTpBEk5","ip0JlXiSn9k9G2TnglevTKtTDT",4291887,724,FALSE,37326,"['trinary_A', 'trinary_B', 'trinary_C', 'trinary_AB', 'trinary_BC']","['0', '0', '100', '0', '100']","3.0"
"TmDcNAe6FRG5OYjfe8OcTpBEk5","ip0JlXiSn9k9G2TnglevTKtTDT",4311419,725,FALSE,19528,"['binary_statepop1', 'binary_statearea1', 'binary_gdp1']","['0', '100', '100']","3.0"
"TmDcNAe6FRG5OYjfe8OcTpBEk5","ip0JlXiSn9k9G2TnglevTKtTDT",4333047,726,FALSE,21625,"['binary_statepop2', 'binary_statearea2', 'binary_gdp2']","['0', '0', '0']","3.0"
"TmDcNAe6FRG5OYjfe8OcTpBEk5","ip0JlXiSn9k9G2TnglevTKtTDT",4351711,727,FALSE,18661,"['time1', 'time2', 'time3']","['70', '80', '89']","3.0"
"TmDcNAe6FRG5OYjfe8OcTpBEk5","ip0JlXiSn9k9G2TnglevTKtTDT",4363058,728,FALSE,11344,"['time4', 'time5', 'time6']","['20', '30', '49']","3.0"
"TmDcNAe6FRG5OYjfe8OcTpBEk5","ip0JlXiSn9k9G2TnglevTKtTDT",4380336,729,FALSE,17276,"['space1', 'space2', 'space3']","['100', '100', '100']","3.0"
"TmDcNAe6FRG5OYjfe8OcTpBEk5","ip0JlXiSn9k9G2TnglevTKtTDT",4396685,730,FALSE,16346,"['space4', 'space5', 'space6']","['100', '100', '100']","3.0"
"TmDcNAe6FRG5OYjfe8OcTpBEk5","ip0JlXiSn9k9G2TnglevTKtTDT",4414685,731,FALSE,17997,"['confidence_interval1', 'confidence_interval2', 'confidence_interval3']","['100', '100', '100']","3.0"
"wgxtKbDhWVjtCDxLrkIFfBb763","SplEYzOeVyHRwvW86a6DC3JqEy",4992978,1369,FALSE,57366,"['trinary_A', 'trinary_B', 'trinary_C', 'trinary_AB', 'trinary_BC']","['7', '42', '75', '23', '93']","3.0"
"wgxtKbDhWVjtCDxLrkIFfBb763","SplEYzOeVyHRwvW86a6DC3JqEy",5012760,1370,FALSE,19779,"['binary_statepop1', 'binary_statearea1', 'binary_gdp1']","['92', '40', '86']","3.0"
"wgxtKbDhWVjtCDxLrkIFfBb763","SplEYzOeVyHRwvW86a6DC3JqEy",5052441,1371,FALSE,39680,"['binary_statepop2', 'binary_statearea2', 'binary_gdp2']","['18', '71', '35']","3.0"
"wgxtKbDhWVjtCDxLrkIFfBb763","SplEYzOeVyHRwvW86a6DC3JqEy",5065674,1372,FALSE,13231,"['time1', 'time2', 'time3']","['56', '63', '72']","3.0"
"wgxtKbDhWVjtCDxLrkIFfBb763","SplEYzOeVyHRwvW86a6DC3JqEy",5078774,1373,FALSE,13097,"['time4', 'time5', 'time6']","['4', '12', '24']","3.0"
"wgxtKbDhWVjtCDxLrkIFfBb763","SplEYzOeVyHRwvW86a6DC3JqEy",5139341,1374,FALSE,60566,"['space1', 'space2', 'space3']","['73', '87', '99']","3.0"
"wgxtKbDhWVjtCDxLrkIFfBb763","SplEYzOeVyHRwvW86a6DC3JqEy",5152441,1375,FALSE,13097,"['space4', 'space5', 'space6']","['75', '87', '99']","3.0"
"wgxtKbDhWVjtCDxLrkIFfBb763","SplEYzOeVyHRwvW86a6DC3JqEy",5165375,1376,FALSE,12931,"['confidence_interval1', 'confidence_interval2', 'confidence_interval3']","['71', '75', '83']","3.0"
"Gs5GNIfI1EsQ3Ful5CBfylBy21","y6arfa2UxXISAjMLxQhFNIqc8C",1339733,89,FALSE,48983,"['trinary_A', 'trinary_B', 'trinary_C', 'trinary_AB', 'trinary_BC']","['0', '10', '100', '4', '100']","3.0"
"Gs5GNIfI1EsQ3Ful5CBfylBy21","y6arfa2UxXISAjMLxQhFNIqc8C",1355906,90,FALSE,16170,"['binary_statepop1', 'binary_statearea1', 'binary_gdp1']","['100', '50', '80']","3.0"
"Gs5GNIfI1EsQ3Ful5CBfylBy21","y6arfa2UxXISAjMLxQhFNIqc8C",1374933,91,FALSE,19026,"['binary_statepop2', 'binary_statearea2', 'binary_gdp2']","['10', '80', '30']","3.0"
"Gs5GNIfI1EsQ3Ful5CBfylBy21","y6arfa2UxXISAjMLxQhFNIqc8C",1388734,92,FALSE,13799,"['time1', 'time2', 'time3']","['0', '0', '0']","3.0"
"Gs5GNIfI1EsQ3Ful5CBfylBy21","y6arfa2UxXISAjMLxQhFNIqc8C",1400764,93,FALSE,12029,"['time4', 'time5', 'time6']","['80', '89', '100']","3.0"
"Gs5GNIfI1EsQ3Ful5CBfylBy21","y6arfa2UxXISAjMLxQhFNIqc8C",1425161,94,FALSE,24396,"['space1', 'space2', 'space3']","['70', '91', '100']","3.0"
"Gs5GNIfI1EsQ3Ful5CBfylBy21","y6arfa2UxXISAjMLxQhFNIqc8C",1441629,95,FALSE,16466,"['space4', 'space5', 'space6']","['60', '71', '100']","3.0"
"Gs5GNIfI1EsQ3Ful5CBfylBy21","y6arfa2UxXISAjMLxQhFNIqc8C",1459465,96,FALSE,17835,"['confidence_interval1', 'confidence_interval2', 'confidence_interval3']","['81', '89', '96']","3.0"
"N5lNa4Sc3baOKPmS2V3PK3Wbf2","5ZMtyG0MTifonXeP83omGmbZxP",2064923,989,FALSE,69430,"['trinary_A', 'trinary_B', 'trinary_C', 'trinary_AB', 'trinary_BC']","['19', '20', '30', '59', '69']","2.0"
"N5lNa4Sc3baOKPmS2V3PK3Wbf2","5ZMtyG0MTifonXeP83omGmbZxP",2101406,990,FALSE,36435,"['binary_statepop1', 'binary_statearea1', 'binary_gdp1']","['60', '42', '29']","2.0"
"N5lNa4Sc3baOKPmS2V3PK3Wbf2","5ZMtyG0MTifonXeP83omGmbZxP",2127919,991,FALSE,26502,"['binary_statepop2', 'binary_statearea2', 'binary_gdp2']","['31', '50', '69']","2.0"
"N5lNa4Sc3baOKPmS2V3PK3Wbf2","5ZMtyG0MTifonXeP83omGmbZxP",2151487,992,FALSE,23555,"['time1', 'time2', 'time3']","['81', '61', '43']","2.0"
"N5lNa4Sc3baOKPmS2V3PK3Wbf2","5ZMtyG0MTifonXeP83omGmbZxP",2169031,993,FALSE,17536,"['time4', 'time5', 'time6']","['44', '32', '43']","2.0"
"N5lNa4Sc3baOKPmS2V3PK3Wbf2","5ZMtyG0MTifonXeP83omGmbZxP",2185389,994,FALSE,16350,"['space1', 'space2', 'space3']","['71', '59', '62']","2.0"
"N5lNa4Sc3baOKPmS2V3PK3Wbf2","5ZMtyG0MTifonXeP83omGmbZxP",2202435,995,FALSE,17038,"['space4', 'space5', 'space6']","['54', '38', '39']","2.0"
"N5lNa4Sc3baOKPmS2V3PK3Wbf2","5ZMtyG0MTifonXeP83omGmbZxP",2227142,996,FALSE,24696,"['confidence_interval1', 'confidence_interval2', 'confidence_interval3']","['51', '44', '33']","2.0"
"2TBHnZOJUYj0MYZrQRly55DXIe","FnXNJBhxBqrUUwhvzdcOISzDMd",511259,32,FALSE,64048,"['trinary_A', 'trinary_B', 'trinary_C', 'trinary_AB', 'trinary_BC']","['9', '13', '94', '0', '0']","3.0"
"2TBHnZOJUYj0MYZrQRly55DXIe","FnXNJBhxBqrUUwhvzdcOISzDMd",555107,33,FALSE,43845,"['binary_statepop1', 'binary_statearea1', 'binary_gdp1']","['89', '89', '49']","3.0"
"2TBHnZOJUYj0MYZrQRly55DXIe","FnXNJBhxBqrUUwhvzdcOISzDMd",583697,34,FALSE,28587,"['binary_statepop2', 'binary_statearea2', 'binary_gdp2']","['5', '33', '17']","3.0"
"2TBHnZOJUYj0MYZrQRly55DXIe","FnXNJBhxBqrUUwhvzdcOISzDMd",598985,35,FALSE,15284,"['time1', 'time2', 'time3']","['39', '71', '90']","3.0"
"2TBHnZOJUYj0MYZrQRly55DXIe","FnXNJBhxBqrUUwhvzdcOISzDMd",608783,36,FALSE,9794,"['time4', 'time5', 'time6']","['60', '69', '80']","3.0"
"2TBHnZOJUYj0MYZrQRly55DXIe","FnXNJBhxBqrUUwhvzdcOISzDMd",653613,37,FALSE,44828,"['space1', 'space2', 'space3']","['60', '79', '94']","3.0"
"2TBHnZOJUYj0MYZrQRly55DXIe","FnXNJBhxBqrUUwhvzdcOISzDMd",668460,38,FALSE,14845,"['space4', 'space5', 'space6']","['60', '64', '69']","3.0"
"2TBHnZOJUYj0MYZrQRly55DXIe","FnXNJBhxBqrUUwhvzdcOISzDMd",693471,39,FALSE,25008,"['confidence_interval1', 'confidence_interval2', 'confidence_interval3']","['59', '80', '99']","3.0"
"4dlMkaMkKa009NZWAw1iqBcwPi","gYP0jhFCWEXP0ZjkDfhbGvpP8p",17438489,621,FALSE,72050,"['trinary_A', 'trinary_B', 'trinary_C', 'trinary_AB', 'trinary_BC']","['69', '51', '69', '61', '59']","2.0"
"4dlMkaMkKa009NZWAw1iqBcwPi","gYP0jhFCWEXP0ZjkDfhbGvpP8p",17460528,622,FALSE,21991,"['binary_statepop1', 'binary_statearea1', 'binary_gdp1']","['79', '59', '41']","2.0"
"4dlMkaMkKa009NZWAw1iqBcwPi","gYP0jhFCWEXP0ZjkDfhbGvpP8p",17477519,623,FALSE,16987,"['binary_statepop2', 'binary_statearea2', 'binary_gdp2']","['69', '59', '59']","2.0"
"4dlMkaMkKa009NZWAw1iqBcwPi","gYP0jhFCWEXP0ZjkDfhbGvpP8p",17486364,624,FALSE,8841,"['time1', 'time2', 'time3']","['58', '51', '58']","2.0"
"4dlMkaMkKa009NZWAw1iqBcwPi","gYP0jhFCWEXP0ZjkDfhbGvpP8p",17498396,625,FALSE,12028,"['time4', 'time5', 'time6']","['48', '49', '49']","2.0"
"4dlMkaMkKa009NZWAw1iqBcwPi","gYP0jhFCWEXP0ZjkDfhbGvpP8p",17518739,626,FALSE,20339,"['space1', 'space2', 'space3']","['51', '49', '49']","2.0"
"4dlMkaMkKa009NZWAw1iqBcwPi","gYP0jhFCWEXP0ZjkDfhbGvpP8p",17533513,627,FALSE,14770,"['space4', 'space5', 'space6']","['39', '50', '49']","2.0"
"4dlMkaMkKa009NZWAw1iqBcwPi","gYP0jhFCWEXP0ZjkDfhbGvpP8p",17544018,628,FALSE,10500,"['confidence_interval1', 'confidence_interval2', 'confidence_interval3']","['50', '49', '40']","2.0"
"HSoSwwbH35lqpoIXceM6dQWjth","gchtcxT3Y6Z9Elqc8S8pX46WEj",3514010,575,FALSE,62724,"['trinary_A', 'trinary_B', 'trinary_C', 'trinary_AB', 'trinary_BC']","['59', '79', '49', '30', '49']","3.0"
"HSoSwwbH35lqpoIXceM6dQWjth","gchtcxT3Y6Z9Elqc8S8pX46WEj",3538648,576,FALSE,24634,"['binary_statepop1', 'binary_statearea1', 'binary_gdp1']","['89', '79', '60']","3.0"
"HSoSwwbH35lqpoIXceM6dQWjth","gchtcxT3Y6Z9Elqc8S8pX46WEj",3558810,577,FALSE,20160,"['binary_statepop2', 'binary_statearea2', 'binary_gdp2']","['29', '30', '20']","3.0"
"HSoSwwbH35lqpoIXceM6dQWjth","gchtcxT3Y6Z9Elqc8S8pX46WEj",3582835,578,FALSE,24022,"['time1', 'time2', 'time3']","['9', '20', '40']","3.0"
"HSoSwwbH35lqpoIXceM6dQWjth","gchtcxT3Y6Z9Elqc8S8pX46WEj",3594154,579,FALSE,11316,"['time4', 'time5', 'time6']","['90', '91', '90']","3.0"
"HSoSwwbH35lqpoIXceM6dQWjth","gchtcxT3Y6Z9Elqc8S8pX46WEj",3624526,580,FALSE,30369,"['space1', 'space2', 'space3']","['85', '90', '100']","3.0"
"HSoSwwbH35lqpoIXceM6dQWjth","gchtcxT3Y6Z9Elqc8S8pX46WEj",3637918,581,FALSE,13389,"['space4', 'space5', 'space6']","['76', '85', '93']","3.0"
"HSoSwwbH35lqpoIXceM6dQWjth","gchtcxT3Y6Z9Elqc8S8pX46WEj",3663036,582,FALSE,25115,"['confidence_interval1', 'confidence_interval2', 'confidence_interval3']","['50', '73', '84']","3.0"
"3y3YlXMmKNewtENV4M3R0mpOWb","uhrq8s6KBRDC4bjbyKcKBvqCfj",2465618,526,FALSE,29405,"['trinary_A', 'trinary_B', 'trinary_C', 'trinary_AB', 'trinary_BC']","['9', '26', '50', '24', '100']","2.0"
"3y3YlXMmKNewtENV4M3R0mpOWb","uhrq8s6KBRDC4bjbyKcKBvqCfj",2516696,527,FALSE,51075,"['binary_statepop1', 'binary_statearea1', 'binary_gdp1']","['100', '100', '50']","2.0"
"3y3YlXMmKNewtENV4M3R0mpOWb","uhrq8s6KBRDC4bjbyKcKBvqCfj",2548244,528,FALSE,31544,"['binary_statepop2', 'binary_statearea2', 'binary_gdp2']","['0', '0', '0']","2.0"
"3y3YlXMmKNewtENV4M3R0mpOWb","uhrq8s6KBRDC4bjbyKcKBvqCfj",2565346,529,FALSE,17096,"['time1', 'time2', 'time3']","['10', '15', '20']","2.0"
"3y3YlXMmKNewtENV4M3R0mpOWb","uhrq8s6KBRDC4bjbyKcKBvqCfj",2577166,530,FALSE,11815,"['time4', 'time5', 'time6']","['25', '30', '35']","2.0"
"3y3YlXMmKNewtENV4M3R0mpOWb","uhrq8s6KBRDC4bjbyKcKBvqCfj",2615958,531,FALSE,38788,"['space1', 'space2', 'space3']","['0', '25', '100']","2.0"
"3y3YlXMmKNewtENV4M3R0mpOWb","uhrq8s6KBRDC4bjbyKcKBvqCfj",2662162,532,FALSE,46199,"['space4', 'space5', 'space6']","['0', '0', '100']","2.0"
"3y3YlXMmKNewtENV4M3R0mpOWb","uhrq8s6KBRDC4bjbyKcKBvqCfj",2706434,533,FALSE,44269,"['confidence_interval1', 'confidence_interval2', 'confidence_interval3']","['100', '100', '100']","2.0"
"0cxe8fZLamHcc6kdd4QgXwISRo","xgRvBq6DowZ5suFssc0zjulHVw",3212786,1171,FALSE,58201,"['trinary_A', 'trinary_B', 'trinary_C', 'trinary_AB', 'trinary_BC']","['29', '49', '80', '3', '70']","2.0"
"0cxe8fZLamHcc6kdd4QgXwISRo","xgRvBq6DowZ5suFssc0zjulHVw",3232180,1172,FALSE,19392,"['binary_statepop1', 'binary_statearea1', 'binary_gdp1']","['100', '80', '90']","2.0"
"0cxe8fZLamHcc6kdd4QgXwISRo","xgRvBq6DowZ5suFssc0zjulHVw",3243471,1173,FALSE,11289,"['binary_statepop2', 'binary_statearea2', 'binary_gdp2']","['29', '29', '10']","2.0"
"0cxe8fZLamHcc6kdd4QgXwISRo","xgRvBq6DowZ5suFssc0zjulHVw",3259450,1174,FALSE,15977,"['time1', 'time2', 'time3']","['20', '20', '20']","2.0"
"0cxe8fZLamHcc6kdd4QgXwISRo","xgRvBq6DowZ5suFssc0zjulHVw",3272593,1175,FALSE,13141,"['time4', 'time5', 'time6']","['79', '100', '100']","2.0"
"0cxe8fZLamHcc6kdd4QgXwISRo","xgRvBq6DowZ5suFssc0zjulHVw",3289975,1176,FALSE,17380,"['space1', 'space2', 'space3']","['82', '99', '100']","2.0"
"0cxe8fZLamHcc6kdd4QgXwISRo","xgRvBq6DowZ5suFssc0zjulHVw",3300944,1177,FALSE,10967,"['space4', 'space5', 'space6']","['100', '100', '100']","2.0"
"0cxe8fZLamHcc6kdd4QgXwISRo","xgRvBq6DowZ5suFssc0zjulHVw",3325840,1178,FALSE,24894,"['confidence_interval1', 'confidence_interval2', 'confidence_interval3']","['40', '59', '69']","2.0"
"sbHdu8GGTMOpO46g343rinHq9e","Yuymk052ketbug7RWOBlrlxZCR",3342352,699,FALSE,29884,"['trinary_A', 'trinary_B', 'trinary_C', 'trinary_AB', 'trinary_BC']","['50', '61', '70', '30', '41']","2.0"
"sbHdu8GGTMOpO46g343rinHq9e","Yuymk052ketbug7RWOBlrlxZCR",3353415,700,FALSE,11059,"['binary_statepop1', 'binary_statearea1', 'binary_gdp1']","['49', '50', '61']","2.0"
"sbHdu8GGTMOpO46g343rinHq9e","Yuymk052ketbug7RWOBlrlxZCR",3369536,701,FALSE,16116,"['binary_statepop2', 'binary_statearea2', 'binary_gdp2']","['18', '62', '60']","2.0"
"sbHdu8GGTMOpO46g343rinHq9e","Yuymk052ketbug7RWOBlrlxZCR",3385728,702,FALSE,16189,"['time1', 'time2', 'time3']","['68', '80', '91']","2.0"
"sbHdu8GGTMOpO46g343rinHq9e","Yuymk052ketbug7RWOBlrlxZCR",3394791,703,FALSE,9059,"['time4', 'time5', 'time6']","['49', '61', '71']","2.0"
"sbHdu8GGTMOpO46g343rinHq9e","Yuymk052ketbug7RWOBlrlxZCR",3413959,704,FALSE,19164,"['space1', 'space2', 'space3']","['72', '82', '99']","2.0"
"sbHdu8GGTMOpO46g343rinHq9e","Yuymk052ketbug7RWOBlrlxZCR",3424224,705,FALSE,10261,"['space4', 'space5', 'space6']","['50', '69', '90']","2.0"
"sbHdu8GGTMOpO46g343rinHq9e","Yuymk052ketbug7RWOBlrlxZCR",3434239,706,FALSE,10012,"['confidence_interval1', 'confidence_interval2', 'confidence_interval3']","['50', '61', '66']","2.0"
"G5ZBpCO4zXZko6cqwrVDNbgyix","6c5pPqKHgHpEbMwUvUzX7S8n0P",1085735,164,FALSE,56093,"['trinary_A', 'trinary_B', 'trinary_C', 'trinary_AB', 'trinary_BC']","['9', '20', '70', '30', '79']","3.0"
"G5ZBpCO4zXZko6cqwrVDNbgyix","6c5pPqKHgHpEbMwUvUzX7S8n0P",1100311,165,FALSE,14574,"['binary_statepop1', 'binary_statearea1', 'binary_gdp1']","['60', '30', '50']","3.0"
"G5ZBpCO4zXZko6cqwrVDNbgyix","6c5pPqKHgHpEbMwUvUzX7S8n0P",1111434,166,FALSE,11121,"['binary_statepop2', 'binary_statearea2', 'binary_gdp2']","['50', '40', '49']","3.0"
"G5ZBpCO4zXZko6cqwrVDNbgyix","6c5pPqKHgHpEbMwUvUzX7S8n0P",1132057,167,FALSE,20621,"['time1', 'time2', 'time3']","['50', '49', '50']","3.0"
"G5ZBpCO4zXZko6cqwrVDNbgyix","6c5pPqKHgHpEbMwUvUzX7S8n0P",1140549,168,FALSE,8490,"['time4', 'time5', 'time6']","['49', '59', '63']","3.0"
"G5ZBpCO4zXZko6cqwrVDNbgyix","6c5pPqKHgHpEbMwUvUzX7S8n0P",1160900,169,FALSE,20349,"['space1', 'space2', 'space3']","['40', '55', '74']","3.0"
"G5ZBpCO4zXZko6cqwrVDNbgyix","6c5pPqKHgHpEbMwUvUzX7S8n0P",1172863,170,FALSE,11961,"['space4', 'space5', 'space6']","['40', '64', '70']","3.0"
"G5ZBpCO4zXZko6cqwrVDNbgyix","6c5pPqKHgHpEbMwUvUzX7S8n0P",1201202,171,FALSE,28337,"['confidence_interval1', 'confidence_interval2', 'confidence_interval3']","['45', '66', '80']","3.0"
"7nlmw3BdK1kwluT1CwmeYU4H3t","3Ws72JzQDpeL7aca4aLpGJYW6U",2815634,170,FALSE,61123,"['trinary_A', 'trinary_B', 'trinary_C', 'trinary_AB', 'trinary_BC']","['0', '0', '100', '0', '100']","2.0"
"7nlmw3BdK1kwluT1CwmeYU4H3t","3Ws72JzQDpeL7aca4aLpGJYW6U",2858482,171,FALSE,42845,"['binary_statepop1', 'binary_statearea1', 'binary_gdp1']","['10', '30', '79']","2.0"
"7nlmw3BdK1kwluT1CwmeYU4H3t","3Ws72JzQDpeL7aca4aLpGJYW6U",2890714,172,FALSE,32229,"['binary_statepop2', 'binary_statearea2', 'binary_gdp2']","['80', '19', '19']","2.0"
"7nlmw3BdK1kwluT1CwmeYU4H3t","3Ws72JzQDpeL7aca4aLpGJYW6U",2930201,173,FALSE,39485,"['time1', 'time2', 'time3']","['0', '1', '2']","2.0"
"7nlmw3BdK1kwluT1CwmeYU4H3t","3Ws72JzQDpeL7aca4aLpGJYW6U",2946412,174,FALSE,16209,"['time4', 'time5', 'time6']","['25', '30', '40']","2.0"
"7nlmw3BdK1kwluT1CwmeYU4H3t","3Ws72JzQDpeL7aca4aLpGJYW6U",2990768,175,FALSE,44354,"['space1', 'space2', 'space3']","['78', '89', '100']","2.0"
"7nlmw3BdK1kwluT1CwmeYU4H3t","3Ws72JzQDpeL7aca4aLpGJYW6U",3021866,176,FALSE,31094,"['space4', 'space5', 'space6']","['9', '13', '74']","2.0"
"7nlmw3BdK1kwluT1CwmeYU4H3t","3Ws72JzQDpeL7aca4aLpGJYW6U",3059769,177,FALSE,37899,"['confidence_interval1', 'confidence_interval2', 'confidence_interval3']","['59', '69', '80']","2.0"
"NZN7BcYRtWqW3CM7xNuzZODHlk","gQB4z0c4GcKMyWCqoeT3OkDbY5",4563692,728,FALSE,37190,"['trinary_A', 'trinary_B', 'trinary_C', 'trinary_AB', 'trinary_BC']","['20', '29', '20', '19', '90']","3.0"
"NZN7BcYRtWqW3CM7xNuzZODHlk","gQB4z0c4GcKMyWCqoeT3OkDbY5",4586638,729,FALSE,22945,"['binary_statepop1', 'binary_statearea1', 'binary_gdp1']","['82', '49', '70']","3.0"
"NZN7BcYRtWqW3CM7xNuzZODHlk","gQB4z0c4GcKMyWCqoeT3OkDbY5",4607952,730,FALSE,21310,"['binary_statepop2', 'binary_statearea2', 'binary_gdp2']","['31', '48', '50']","3.0"
"NZN7BcYRtWqW3CM7xNuzZODHlk","gQB4z0c4GcKMyWCqoeT3OkDbY5",4618132,731,FALSE,10178,"['time1', 'time2', 'time3']","['50', '50', '47']","3.0"
"NZN7BcYRtWqW3CM7xNuzZODHlk","gQB4z0c4GcKMyWCqoeT3OkDbY5",4633565,732,FALSE,15432,"['time4', 'time5', 'time6']","['18', '20', '20']","3.0"
"NZN7BcYRtWqW3CM7xNuzZODHlk","gQB4z0c4GcKMyWCqoeT3OkDbY5",4650133,733,FALSE,16565,"['space1', 'space2', 'space3']","['57', '58', '60']","3.0"
"NZN7BcYRtWqW3CM7xNuzZODHlk","gQB4z0c4GcKMyWCqoeT3OkDbY5",4665552,734,FALSE,15415,"['space4', 'space5', 'space6']","['79', '79', '49']","3.0"
"NZN7BcYRtWqW3CM7xNuzZODHlk","gQB4z0c4GcKMyWCqoeT3OkDbY5",4679706,735,FALSE,14153,"['confidence_interval1', 'confidence_interval2', 'confidence_interval3']","['52', '52', '51']","3.0"
"v0xHEZJAnH2hBk7KYt5bJ1pphi","VOAtYbTmZlnKDgOVm2PkI5RahV",1311763,673,FALSE,17205,"['trinary_A', 'trinary_B', 'trinary_C', 'trinary_AB', 'trinary_BC']","['26', '30', '52', '27', '49']","3.0"
"v0xHEZJAnH2hBk7KYt5bJ1pphi","VOAtYbTmZlnKDgOVm2PkI5RahV",1324879,674,FALSE,13108,"['binary_statepop1', 'binary_statearea1', 'binary_gdp1']","['64', '71', '64']","3.0"
"v0xHEZJAnH2hBk7KYt5bJ1pphi","VOAtYbTmZlnKDgOVm2PkI5RahV",1337367,675,FALSE,12476,"['binary_statepop2', 'binary_statearea2', 'binary_gdp2']","['16', '15', '16']","3.0"
"v0xHEZJAnH2hBk7KYt5bJ1pphi","VOAtYbTmZlnKDgOVm2PkI5RahV",1347567,676,FALSE,10187,"['time1', 'time2', 'time3']","['64', '54', '55']","3.0"
"v0xHEZJAnH2hBk7KYt5bJ1pphi","VOAtYbTmZlnKDgOVm2PkI5RahV",1357062,677,FALSE,9485,"['time4', 'time5', 'time6']","['76', '79', '82']","3.0"
"v0xHEZJAnH2hBk7KYt5bJ1pphi","VOAtYbTmZlnKDgOVm2PkI5RahV",1375704,678,FALSE,18637,"['space1', 'space2', 'space3']","['74', '79', '83']","3.0"
"v0xHEZJAnH2hBk7KYt5bJ1pphi","VOAtYbTmZlnKDgOVm2PkI5RahV",1380070,679,FALSE,4356,"['space4', 'space5', 'space6']","['55', '62', '69']","3.0"
"v0xHEZJAnH2hBk7KYt5bJ1pphi","VOAtYbTmZlnKDgOVm2PkI5RahV",1391133,680,FALSE,11057,"['confidence_interval1', 'confidence_interval2', 'confidence_interval3']","['76', '70', '65']","3.0"
"pdNlWr7CTQH6apW74umDCdw3QH","IGqVvD0WJFumEtCL7RxFVWXpCx",743929,101,FALSE,42851,"['trinary_A', 'trinary_B', 'trinary_C', 'trinary_AB', 'trinary_BC']","['10', '14', '98', '3', '98']","3.0"
"pdNlWr7CTQH6apW74umDCdw3QH","IGqVvD0WJFumEtCL7RxFVWXpCx",800374,102,FALSE,56443,"['binary_statepop1', 'binary_statearea1', 'binary_gdp1']","['98', '100', '96']","3.0"
"pdNlWr7CTQH6apW74umDCdw3QH","IGqVvD0WJFumEtCL7RxFVWXpCx",852216,103,FALSE,51839,"['binary_statepop2', 'binary_statearea2', 'binary_gdp2']","['2', '0', '0']","3.0"
"pdNlWr7CTQH6apW74umDCdw3QH","IGqVvD0WJFumEtCL7RxFVWXpCx",868154,104,FALSE,15937,"['time1', 'time2', 'time3']","['55', '59', '62']","3.0"
"pdNlWr7CTQH6apW74umDCdw3QH","IGqVvD0WJFumEtCL7RxFVWXpCx",896527,105,FALSE,28371,"['time4', 'time5', 'time6']","['1', '3', '4']","3.0"
"pdNlWr7CTQH6apW74umDCdw3QH","IGqVvD0WJFumEtCL7RxFVWXpCx",948786,106,FALSE,52257,"['space1', 'space2', 'space3']","['89', '93', '94']","3.0"
"pdNlWr7CTQH6apW74umDCdw3QH","IGqVvD0WJFumEtCL7RxFVWXpCx",987261,107,FALSE,38474,"['space4', 'space5', 'space6']","['98', '98', '99']","3.0"
"pdNlWr7CTQH6apW74umDCdw3QH","IGqVvD0WJFumEtCL7RxFVWXpCx",1039877,108,FALSE,52613,"['confidence_interval1', 'confidence_interval2', 'confidence_interval3']","['95', '97', '99']","3.0"
"1qqyj3uwoGDwVUhFSx8uq9XZ2k","qTJTU6gD2FrZilbvUUlYY1MzBZ",1279888,72,FALSE,48233,"['trinary_A', 'trinary_B', 'trinary_C', 'trinary_AB', 'trinary_BC']","['29', '40', '89', '30', '100']","2.0"
"1qqyj3uwoGDwVUhFSx8uq9XZ2k","qTJTU6gD2FrZilbvUUlYY1MzBZ",1307775,73,FALSE,27853,"['binary_statepop1', 'binary_statearea1', 'binary_gdp1']","['70', '100', '80']","2.0"
"1qqyj3uwoGDwVUhFSx8uq9XZ2k","qTJTU6gD2FrZilbvUUlYY1MzBZ",1366153,74,FALSE,58341,"['binary_statepop2', 'binary_statearea2', 'binary_gdp2']","['90', '40', '29']","2.0"
"1qqyj3uwoGDwVUhFSx8uq9XZ2k","qTJTU6gD2FrZilbvUUlYY1MzBZ",1382878,75,FALSE,16709,"['time1', 'time2', 'time3']","['30', '50', '61']","2.0"
"1qqyj3uwoGDwVUhFSx8uq9XZ2k","qTJTU6gD2FrZilbvUUlYY1MzBZ",1441683,76,FALSE,58798,"['time4', 'time5', 'time6']","['20', '30', '41']","2.0"
"1qqyj3uwoGDwVUhFSx8uq9XZ2k","qTJTU6gD2FrZilbvUUlYY1MzBZ",1473002,77,FALSE,31306,"['space1', 'space2', 'space3']","['69', '80', '90']","2.0"
"1qqyj3uwoGDwVUhFSx8uq9XZ2k","qTJTU6gD2FrZilbvUUlYY1MzBZ",1492148,78,FALSE,19134,"['space4', 'space5', 'space6']","['49', '71', '90']","2.0"
"1qqyj3uwoGDwVUhFSx8uq9XZ2k","qTJTU6gD2FrZilbvUUlYY1MzBZ",1537350,79,FALSE,45198,"['confidence_interval1', 'confidence_interval2', 'confidence_interval3']","['79', '90', '100']","2.0"
"bdQFUzfoOeMyBEsjMxPAOHZnTY","XF0V7cturAS9F8mNdu3yzhN2oM",2432205,320,FALSE,41080,"['trinary_A', 'trinary_B', 'trinary_C', 'trinary_AB', 'trinary_BC']","['20', '27', '68', '4', '81']","2.0"
"bdQFUzfoOeMyBEsjMxPAOHZnTY","XF0V7cturAS9F8mNdu3yzhN2oM",2447018,321,FALSE,14808,"['binary_statepop1', 'binary_statearea1', 'binary_gdp1']","['80', '69', '89']","2.0"
"bdQFUzfoOeMyBEsjMxPAOHZnTY","XF0V7cturAS9F8mNdu3yzhN2oM",2455817,322,FALSE,8796,"['binary_statepop2', 'binary_statearea2', 'binary_gdp2']","['20', '18', '11']","2.0"
"bdQFUzfoOeMyBEsjMxPAOHZnTY","XF0V7cturAS9F8mNdu3yzhN2oM",2468370,323,FALSE,12551,"['time1', 'time2', 'time3']","['24', '34', '46']","2.0"
"bdQFUzfoOeMyBEsjMxPAOHZnTY","XF0V7cturAS9F8mNdu3yzhN2oM",2476781,324,FALSE,8408,"['time4', 'time5', 'time6']","['19', '30', '50']","2.0"
"bdQFUzfoOeMyBEsjMxPAOHZnTY","XF0V7cturAS9F8mNdu3yzhN2oM",2494970,325,FALSE,18186,"['space1', 'space2', 'space3']","['59', '89', '100']","2.0"
"bdQFUzfoOeMyBEsjMxPAOHZnTY","XF0V7cturAS9F8mNdu3yzhN2oM",2509755,326,FALSE,14781,"['space4', 'space5', 'space6']","['21', '33', '57']","2.0"
"bdQFUzfoOeMyBEsjMxPAOHZnTY","XF0V7cturAS9F8mNdu3yzhN2oM",2528733,327,FALSE,18975,"['confidence_interval1', 'confidence_interval2', 'confidence_interval3']","['60', '69', '80']","2.0"
"gtPUi7sqEEoHOD7DLj5gzQtsgx","YFRGdzpKbz8pHYylmbZj99Wl6Y",4686794,1268,FALSE,56829,"['trinary_A', 'trinary_B', 'trinary_C', 'trinary_AB', 'trinary_BC']","['10', '10', '80', '6', '85']","2.0"
"gtPUi7sqEEoHOD7DLj5gzQtsgx","YFRGdzpKbz8pHYylmbZj99Wl6Y",4710276,1269,FALSE,23481,"['binary_statepop1', 'binary_statearea1', 'binary_gdp1']","['63', '49', '71']","2.0"
"gtPUi7sqEEoHOD7DLj5gzQtsgx","YFRGdzpKbz8pHYylmbZj99Wl6Y",4725587,1270,FALSE,15310,"['binary_statepop2', 'binary_statearea2', 'binary_gdp2']","['39', '29', '22']","2.0"
"gtPUi7sqEEoHOD7DLj5gzQtsgx","YFRGdzpKbz8pHYylmbZj99Wl6Y",4750749,1271,FALSE,25161,"['time1', 'time2', 'time3']","['0', '2', '2']","2.0"
"gtPUi7sqEEoHOD7DLj5gzQtsgx","YFRGdzpKbz8pHYylmbZj99Wl6Y",4769342,1272,FALSE,18592,"['time4', 'time5', 'time6']","['19', '26', '34']","2.0"
"gtPUi7sqEEoHOD7DLj5gzQtsgx","YFRGdzpKbz8pHYylmbZj99Wl6Y",4790092,1273,FALSE,20748,"['space1', 'space2', 'space3']","['48', '78', '100']","2.0"
"gtPUi7sqEEoHOD7DLj5gzQtsgx","YFRGdzpKbz8pHYylmbZj99Wl6Y",4808251,1274,FALSE,18158,"['space4', 'space5', 'space6']","['27', '43', '84']","2.0"
"gtPUi7sqEEoHOD7DLj5gzQtsgx","YFRGdzpKbz8pHYylmbZj99Wl6Y",4826270,1275,FALSE,18017,"['confidence_interval1', 'confidence_interval2', 'confidence_interval3']","['49', '40', '69']","2.0"
"PCJOjPEaFjLMSe7X9TUJRlYxCO","Q4c3Ro9t0pH3N52IFYg4rAlJy3",4716190,1281,FALSE,67566,"['trinary_A', 'trinary_B', 'trinary_C', 'trinary_AB', 'trinary_BC']","['39', '50', '60', '40', '16']","2.0"
"PCJOjPEaFjLMSe7X9TUJRlYxCO","Q4c3Ro9t0pH3N52IFYg4rAlJy3",4741719,1282,FALSE,25527,"['binary_statepop1', 'binary_statearea1', 'binary_gdp1']","['41', '80', '47']","2.0"
"PCJOjPEaFjLMSe7X9TUJRlYxCO","Q4c3Ro9t0pH3N52IFYg4rAlJy3",4759102,1283,FALSE,17383,"['binary_statepop2', 'binary_statearea2', 'binary_gdp2']","['69', '16', '78']","2.0"
"PCJOjPEaFjLMSe7X9TUJRlYxCO","Q4c3Ro9t0pH3N52IFYg4rAlJy3",4772466,1284,FALSE,13363,"['time1', 'time2', 'time3']","['11', '19', '29']","2.0"
"PCJOjPEaFjLMSe7X9TUJRlYxCO","Q4c3Ro9t0pH3N52IFYg4rAlJy3",4786422,1285,FALSE,13954,"['time4', 'time5', 'time6']","['10', '16', '22']","2.0"
"PCJOjPEaFjLMSe7X9TUJRlYxCO","Q4c3Ro9t0pH3N52IFYg4rAlJy3",4807406,1286,FALSE,20983,"['space1', 'space2', 'space3']","['19', '30', '50']","2.0"
"PCJOjPEaFjLMSe7X9TUJRlYxCO","Q4c3Ro9t0pH3N52IFYg4rAlJy3",4825614,1287,FALSE,18207,"['space4', 'space5', 'space6']","['10', '16', '22']","2.0"
"PCJOjPEaFjLMSe7X9TUJRlYxCO","Q4c3Ro9t0pH3N52IFYg4rAlJy3",4862914,1288,FALSE,37299,"['confidence_interval1', 'confidence_interval2', 'confidence_interval3']","['29', '69', '89']","2.0"
"IeeHxA8B20Qf7dqBptd23gQsws","BbavLZZuyTjAlJ3irPLXLzxY2S",2614876,916,FALSE,29524,"['trinary_A', 'trinary_B', 'trinary_C', 'trinary_AB', 'trinary_BC']","['31', '49', '59', '29', '14']","3.0"
"IeeHxA8B20Qf7dqBptd23gQsws","BbavLZZuyTjAlJ3irPLXLzxY2S",2630076,917,FALSE,15199,"['binary_statepop1', 'binary_statearea1', 'binary_gdp1']","['49', '30', '34']","3.0"
"IeeHxA8B20Qf7dqBptd23gQsws","BbavLZZuyTjAlJ3irPLXLzxY2S",2649289,918,FALSE,19212,"['binary_statepop2', 'binary_statearea2', 'binary_gdp2']","['50', '88', '38']","3.0"
"IeeHxA8B20Qf7dqBptd23gQsws","BbavLZZuyTjAlJ3irPLXLzxY2S",2667575,919,FALSE,18284,"['time1', 'time2', 'time3']","['59', '69', '81']","3.0"
"IeeHxA8B20Qf7dqBptd23gQsws","BbavLZZuyTjAlJ3irPLXLzxY2S",2676452,920,FALSE,8875,"['time4', 'time5', 'time6']","['19', '23', '20']","3.0"
"IeeHxA8B20Qf7dqBptd23gQsws","BbavLZZuyTjAlJ3irPLXLzxY2S",2690930,921,FALSE,14477,"['space1', 'space2', 'space3']","['69', '80', '50']","3.0"
"IeeHxA8B20Qf7dqBptd23gQsws","BbavLZZuyTjAlJ3irPLXLzxY2S",2702935,922,FALSE,12004,"['space4', 'space5', 'space6']","['69', '70', '59']","3.0"
"IeeHxA8B20Qf7dqBptd23gQsws","BbavLZZuyTjAlJ3irPLXLzxY2S",2714906,923,FALSE,11969,"['confidence_interval1', 'confidence_interval2', 'confidence_interval3']","['82', '68', '51']","3.0"
"G0APNAVl50xWcSR7tOqyClaPyf","tDIJczWs5A7dVr8ZfcMvamgv8R",3307085,1094,FALSE,55710,"['trinary_A', 'trinary_B', 'trinary_C', 'trinary_AB', 'trinary_BC']","['23', '36', '70', '30', '69']","3.0"
"G0APNAVl50xWcSR7tOqyClaPyf","tDIJczWs5A7dVr8ZfcMvamgv8R",3348277,1095,FALSE,41189,"['binary_statepop1', 'binary_statearea1', 'binary_gdp1']","['70', '50', '65']","3.0"
"G0APNAVl50xWcSR7tOqyClaPyf","tDIJczWs5A7dVr8ZfcMvamgv8R",3367516,1096,FALSE,19237,"['binary_statepop2', 'binary_statearea2', 'binary_gdp2']","['35', '50', '39']","3.0"
"G0APNAVl50xWcSR7tOqyClaPyf","tDIJczWs5A7dVr8ZfcMvamgv8R",3388196,1097,FALSE,20678,"['time1', 'time2', 'time3']","['19', '20', '35']","3.0"
"G0APNAVl50xWcSR7tOqyClaPyf","tDIJczWs5A7dVr8ZfcMvamgv8R",3406404,1098,FALSE,18206,"['time4', 'time5', 'time6']","['40', '55', '62']","3.0"
"G0APNAVl50xWcSR7tOqyClaPyf","tDIJczWs5A7dVr8ZfcMvamgv8R",3438108,1099,FALSE,31703,"['space1', 'space2', 'space3']","['66', '89', '100']","3.0"
"G0APNAVl50xWcSR7tOqyClaPyf","tDIJczWs5A7dVr8ZfcMvamgv8R",3461732,1100,FALSE,23622,"['space4', 'space5', 'space6']","['49', '49', '70']","3.0"
"G0APNAVl50xWcSR7tOqyClaPyf","tDIJczWs5A7dVr8ZfcMvamgv8R",3486092,1101,FALSE,24359,"['confidence_interval1', 'confidence_interval2', 'confidence_interval3']","['60', '69', '85']","3.0"
"9BIZx07jE4Ef90AedDSlXVBssn","YuhuDn5zb1ABFjMe46EBYB1aY0",1004709,70,FALSE,66747,"['trinary_A', 'trinary_B', 'trinary_C', 'trinary_AB', 'trinary_BC']","['3', '29', '99', '4', '96']","2.0"
"9BIZx07jE4Ef90AedDSlXVBssn","YuhuDn5zb1ABFjMe46EBYB1aY0",1044595,71,FALSE,39884,"['binary_statepop1', 'binary_statearea1', 'binary_gdp1']","['77', '76', '99']","2.0"
"9BIZx07jE4Ef90AedDSlXVBssn","YuhuDn5zb1ABFjMe46EBYB1aY0",1064901,72,FALSE,20304,"['binary_statepop2', 'binary_statearea2', 'binary_gdp2']","['22', '18', '3']","2.0"
"9BIZx07jE4Ef90AedDSlXVBssn","YuhuDn5zb1ABFjMe46EBYB1aY0",1090519,73,FALSE,25616,"['time1', 'time2', 'time3']","['56', '57', '67']","2.0"
"9BIZx07jE4Ef90AedDSlXVBssn","YuhuDn5zb1ABFjMe46EBYB1aY0",1104691,74,FALSE,14170,"['time4', 'time5', 'time6']","['48', '53', '59']","2.0"
"9BIZx07jE4Ef90AedDSlXVBssn","YuhuDn5zb1ABFjMe46EBYB1aY0",1124677,75,FALSE,19985,"['space1', 'space2', 'space3']","['86', '100', '100']","2.0"
"9BIZx07jE4Ef90AedDSlXVBssn","YuhuDn5zb1ABFjMe46EBYB1aY0",1140675,76,FALSE,15996,"['space4', 'space5', 'space6']","['71', '82', '98']","2.0"
"9BIZx07jE4Ef90AedDSlXVBssn","YuhuDn5zb1ABFjMe46EBYB1aY0",1170339,77,FALSE,29662,"['confidence_interval1', 'confidence_interval2', 'confidence_interval3']","['20', '72', '73']","2.0"
"61lVwkrbPKX7s3Sky5R1eGbANB","CAau7OdzNgY276xYwj2HwQjYnx",3064295,897,FALSE,38420,"['trinary_A', 'trinary_B', 'trinary_C', 'trinary_AB', 'trinary_BC']","['79', '60', '29', '79', '21']","3.0"
"61lVwkrbPKX7s3Sky5R1eGbANB","CAau7OdzNgY276xYwj2HwQjYnx",3082077,898,FALSE,17781,"['binary_statepop1', 'binary_statearea1', 'binary_gdp1']","['90', '30', '90']","3.0"
"61lVwkrbPKX7s3Sky5R1eGbANB","CAau7OdzNgY276xYwj2HwQjYnx",3099566,899,FALSE,17487,"['binary_statepop2', 'binary_statearea2', 'binary_gdp2']","['5', '88', '6']","3.0"
"61lVwkrbPKX7s3Sky5R1eGbANB","CAau7OdzNgY276xYwj2HwQjYnx",3117871,900,FALSE,18304,"['time1', 'time2', 'time3']","['19', '25', '36']","3.0"
"61lVwkrbPKX7s3Sky5R1eGbANB","CAau7OdzNgY276xYwj2HwQjYnx",3132951,901,FALSE,15079,"['time4', 'time5', 'time6']","['41', '50', '70']","3.0"
"61lVwkrbPKX7s3Sky5R1eGbANB","CAau7OdzNgY276xYwj2HwQjYnx",3150547,902,FALSE,17595,"['space1', 'space2', 'space3']","['69', '86', '100']","3.0"
"61lVwkrbPKX7s3Sky5R1eGbANB","CAau7OdzNgY276xYwj2HwQjYnx",3168928,903,FALSE,18379,"['space4', 'space5', 'space6']","['50', '69', '88']","3.0"
"61lVwkrbPKX7s3Sky5R1eGbANB","CAau7OdzNgY276xYwj2HwQjYnx",3190721,904,FALSE,21792,"['confidence_interval1', 'confidence_interval2', 'confidence_interval3']","['90', '76', '83']","3.0"
"b9CoBZdE1dRpzYftOrE2yXFZxW","M0Dqk0rDjDcoYlYJ3Kw1lmOkiK",4838627,771,FALSE,91820,"['trinary_A', 'trinary_B', 'trinary_C', 'trinary_AB', 'trinary_BC']","['9', '9', '80', '20', '89']","3.0"
"b9CoBZdE1dRpzYftOrE2yXFZxW","M0Dqk0rDjDcoYlYJ3Kw1lmOkiK",4888476,772,FALSE,49845,"['binary_statepop1', 'binary_statearea1', 'binary_gdp1']","['100', '100', '94']","3.0"
"b9CoBZdE1dRpzYftOrE2yXFZxW","M0Dqk0rDjDcoYlYJ3Kw1lmOkiK",4902129,773,FALSE,13649,"['binary_statepop2', 'binary_statearea2', 'binary_gdp2']","['0', '0', '9']","3.0"
"b9CoBZdE1dRpzYftOrE2yXFZxW","M0Dqk0rDjDcoYlYJ3Kw1lmOkiK",4922329,774,FALSE,20196,"['time1', 'time2', 'time3']","['50', '75', '95']","3.0"
"b9CoBZdE1dRpzYftOrE2yXFZxW","M0Dqk0rDjDcoYlYJ3Kw1lmOkiK",4942046,775,FALSE,19712,"['time4', 'time5', 'time6']","['1', '3', '5']","3.0"
"b9CoBZdE1dRpzYftOrE2yXFZxW","M0Dqk0rDjDcoYlYJ3Kw1lmOkiK",4970422,776,FALSE,28372,"['space1', 'space2', 'space3']","['100', '100', '100']","3.0"
"b9CoBZdE1dRpzYftOrE2yXFZxW","M0Dqk0rDjDcoYlYJ3Kw1lmOkiK",4999209,777,FALSE,28782,"['space4', 'space5', 'space6']","['25', '35', '100']","3.0"
"b9CoBZdE1dRpzYftOrE2yXFZxW","M0Dqk0rDjDcoYlYJ3Kw1lmOkiK",5050059,778,FALSE,50845,"['confidence_interval1', 'confidence_interval2', 'confidence_interval3']","['5', '8', '11']","3.0"
"fKyu5qyHKrGbQNZ5V22Ujidtu2","hiJoHzKLYjGY0JOiARP5m6lbVg",99335,13,FALSE,60027,"['trinary_A', 'trinary_B', 'trinary_C', 'trinary_AB', 'trinary_BC']","['22', '27', '94', '11', '100']","2.0"
"fKyu5qyHKrGbQNZ5V22Ujidtu2","hiJoHzKLYjGY0JOiARP5m6lbVg",140316,14,FALSE,40978,"['binary_statepop1', 'binary_statearea1', 'binary_gdp1']","['81', '72', '87']","2.0"
"fKyu5qyHKrGbQNZ5V22Ujidtu2","hiJoHzKLYjGY0JOiARP5m6lbVg",162080,15,FALSE,21763,"['binary_statepop2', 'binary_statearea2', 'binary_gdp2']","['40', '23', '28']","2.0"
"fKyu5qyHKrGbQNZ5V22Ujidtu2","hiJoHzKLYjGY0JOiARP5m6lbVg",204166,16,FALSE,42083,"['time1', 'time2', 'time3']","['6', '17', '25']","2.0"
"fKyu5qyHKrGbQNZ5V22Ujidtu2","hiJoHzKLYjGY0JOiARP5m6lbVg",237507,17,FALSE,33339,"['time4', 'time5', 'time6']","['46', '48', '56']","2.0"
"fKyu5qyHKrGbQNZ5V22Ujidtu2","hiJoHzKLYjGY0JOiARP5m6lbVg",288474,18,FALSE,50964,"['space1', 'space2', 'space3']","['21', '83', '100']","2.0"
"fKyu5qyHKrGbQNZ5V22Ujidtu2","hiJoHzKLYjGY0JOiARP5m6lbVg",317710,19,FALSE,29235,"['space4', 'space5', 'space6']","['84', '100', '100']","2.0"
"fKyu5qyHKrGbQNZ5V22Ujidtu2","hiJoHzKLYjGY0JOiARP5m6lbVg",367407,20,FALSE,49695,"['confidence_interval1', 'confidence_interval2', 'confidence_interval3']","['31', '39', '46']","2.0"
"kjTfRJQho7ynOHWmgLuFGqcZAa","IOpQPKeWfLgMXsQrfjwfYZ5tc6",3845472,1212,FALSE,34215,"['trinary_A', 'trinary_B', 'trinary_C', 'trinary_AB', 'trinary_BC']","['8', '9', '100', '2', '89']","2.0"
"kjTfRJQho7ynOHWmgLuFGqcZAa","IOpQPKeWfLgMXsQrfjwfYZ5tc6",3871881,1213,FALSE,26404,"['binary_statepop1', 'binary_statearea1', 'binary_gdp1']","['88', '69', '80']","2.0"
"kjTfRJQho7ynOHWmgLuFGqcZAa","IOpQPKeWfLgMXsQrfjwfYZ5tc6",3892492,1214,FALSE,20600,"['binary_statepop2', 'binary_statearea2', 'binary_gdp2']","['37', '41', '30']","2.0"
"kjTfRJQho7ynOHWmgLuFGqcZAa","IOpQPKeWfLgMXsQrfjwfYZ5tc6",3909523,1215,FALSE,17025,"['time1', 'time2', 'time3']","['20', '29', '36']","2.0"
"kjTfRJQho7ynOHWmgLuFGqcZAa","IOpQPKeWfLgMXsQrfjwfYZ5tc6",3924156,1216,FALSE,14623,"['time4', 'time5', 'time6']","['10', '17', '18']","2.0"
"kjTfRJQho7ynOHWmgLuFGqcZAa","IOpQPKeWfLgMXsQrfjwfYZ5tc6",3946602,1217,FALSE,22441,"['space1', 'space2', 'space3']","['11', '23', '73']","2.0"
"kjTfRJQho7ynOHWmgLuFGqcZAa","IOpQPKeWfLgMXsQrfjwfYZ5tc6",3964297,1218,FALSE,17685,"['space4', 'space5', 'space6']","['19', '23', '61']","2.0"
"kjTfRJQho7ynOHWmgLuFGqcZAa","IOpQPKeWfLgMXsQrfjwfYZ5tc6",3988732,1219,FALSE,24425,"['confidence_interval1', 'confidence_interval2', 'confidence_interval3']","['24', '32', '24']","2.0"
"HzkqNoBV9xN7djmp8KYHcQGVQT","1Sp5zDi3qg4ZGnrcSqpE2aNB9b",5717454,1176,FALSE,62743,"['trinary_A', 'trinary_B', 'trinary_C', 'trinary_AB', 'trinary_BC']","['20', '30', '49', '49', '50']","3.0"
"HzkqNoBV9xN7djmp8KYHcQGVQT","1Sp5zDi3qg4ZGnrcSqpE2aNB9b",5739116,1177,FALSE,21659,"['binary_statepop1', 'binary_statearea1', 'binary_gdp1']","['89', '9', '78']","3.0"
"HzkqNoBV9xN7djmp8KYHcQGVQT","1Sp5zDi3qg4ZGnrcSqpE2aNB9b",5757586,1178,FALSE,18467,"['binary_statepop2', 'binary_statearea2', 'binary_gdp2']","['10', '9', '9']","3.0"
"HzkqNoBV9xN7djmp8KYHcQGVQT","1Sp5zDi3qg4ZGnrcSqpE2aNB9b",5775704,1179,FALSE,18115,"['time1', 'time2', 'time3']","['59', '79', '89']","3.0"
"HzkqNoBV9xN7djmp8KYHcQGVQT","1Sp5zDi3qg4ZGnrcSqpE2aNB9b",5786353,1180,FALSE,10646,"['time4', 'time5', 'time6']","['30', '40', '50']","3.0"
"HzkqNoBV9xN7djmp8KYHcQGVQT","1Sp5zDi3qg4ZGnrcSqpE2aNB9b",5809391,1181,FALSE,23035,"['space1', 'space2', 'space3']","['19', '89', '100']","3.0"
"HzkqNoBV9xN7djmp8KYHcQGVQT","1Sp5zDi3qg4ZGnrcSqpE2aNB9b",5828508,1182,FALSE,19114,"['space4', 'space5', 'space6']","['30', '68', '100']","3.0"
"HzkqNoBV9xN7djmp8KYHcQGVQT","1Sp5zDi3qg4ZGnrcSqpE2aNB9b",5860236,1183,FALSE,31724,"['confidence_interval1', 'confidence_interval2', 'confidence_interval3']","['100', '100', '100']","3.0"
"FVXXyUR8N57I32gsI0a7uQIcQ7","Qo95KXpFeDgJOX6oz5QnQ5Xf35",820901,64,FALSE,35054,"['trinary_A', 'trinary_B', 'trinary_C', 'trinary_AB', 'trinary_BC']","['0', '1', '95', '0', '100']","2.0"
"FVXXyUR8N57I32gsI0a7uQIcQ7","Qo95KXpFeDgJOX6oz5QnQ5Xf35",837169,65,FALSE,16266,"['binary_statepop1', 'binary_statearea1', 'binary_gdp1']","['100', '100', '80']","2.0"
"FVXXyUR8N57I32gsI0a7uQIcQ7","Qo95KXpFeDgJOX6oz5QnQ5Xf35",845752,66,FALSE,8581,"['binary_statepop2', 'binary_statearea2', 'binary_gdp2']","['0', '0', '14']","2.0"
"FVXXyUR8N57I32gsI0a7uQIcQ7","Qo95KXpFeDgJOX6oz5QnQ5Xf35",862661,67,FALSE,16908,"['time1', 'time2', 'time3']","['16', '24', '27']","2.0"
"FVXXyUR8N57I32gsI0a7uQIcQ7","Qo95KXpFeDgJOX6oz5QnQ5Xf35",871594,68,FALSE,8931,"['time4', 'time5', 'time6']","['6', '7', '9']","2.0"
"FVXXyUR8N57I32gsI0a7uQIcQ7","Qo95KXpFeDgJOX6oz5QnQ5Xf35",887242,69,FALSE,15647,"['space1', 'space2', 'space3']","['5', '14', '78']","2.0"
"FVXXyUR8N57I32gsI0a7uQIcQ7","Qo95KXpFeDgJOX6oz5QnQ5Xf35",902059,70,FALSE,14817,"['space4', 'space5', 'space6']","['17', '24', '75']","2.0"
"FVXXyUR8N57I32gsI0a7uQIcQ7","Qo95KXpFeDgJOX6oz5QnQ5Xf35",914620,71,FALSE,12564,"['confidence_interval1', 'confidence_interval2', 'confidence_interval3']","['100', '84', '74']","2.0"
"FuMnwfdgQxu7LrKtZgvslbjX9q","FsRAkyh2QmFxSKLGPJQSEf5Fkw",188549,18,FALSE,69612,"['trinary_A', 'trinary_B', 'trinary_C', 'trinary_AB', 'trinary_BC']","['10', '20', '80', '10', '100']","3.0"
"FuMnwfdgQxu7LrKtZgvslbjX9q","FsRAkyh2QmFxSKLGPJQSEf5Fkw",211547,19,FALSE,22996,"['binary_statepop1', 'binary_statearea1', 'binary_gdp1']","['91', '19', '60']","3.0"
"FuMnwfdgQxu7LrKtZgvslbjX9q","FsRAkyh2QmFxSKLGPJQSEf5Fkw",230980,20,FALSE,19432,"['binary_statepop2', 'binary_statearea2', 'binary_gdp2']","['10', '100', '9']","3.0"
"FuMnwfdgQxu7LrKtZgvslbjX9q","FsRAkyh2QmFxSKLGPJQSEf5Fkw",248581,21,FALSE,17600,"['time1', 'time2', 'time3']","['89', '89', '100']","3.0"
"FuMnwfdgQxu7LrKtZgvslbjX9q","FsRAkyh2QmFxSKLGPJQSEf5Fkw",264394,22,FALSE,15812,"['time4', 'time5', 'time6']","['50', '69', '69']","3.0"
"FuMnwfdgQxu7LrKtZgvslbjX9q","FsRAkyh2QmFxSKLGPJQSEf5Fkw",292512,23,FALSE,28117,"['space1', 'space2', 'space3']","['89', '100', '100']","3.0"
"FuMnwfdgQxu7LrKtZgvslbjX9q","FsRAkyh2QmFxSKLGPJQSEf5Fkw",311111,24,FALSE,18598,"['space4', 'space5', 'space6']","['100', '100', '100']","3.0"
"FuMnwfdgQxu7LrKtZgvslbjX9q","FsRAkyh2QmFxSKLGPJQSEf5Fkw",328012,25,FALSE,16900,"['confidence_interval1', 'confidence_interval2', 'confidence_interval3']","['80', '80', '80']","3.0"
"M3QkqwsGG89cfZHwg8LJX8Bq8F","MGKIYt4eIYkJpObmAND5CF3F2P",7943932,1312,FALSE,52049,"['trinary_A', 'trinary_B', 'trinary_C', 'trinary_AB', 'trinary_BC']","['20', '30', '90', '39', '80']","2.0"
"M3QkqwsGG89cfZHwg8LJX8Bq8F","MGKIYt4eIYkJpObmAND5CF3F2P",7981755,1313,FALSE,37818,"['binary_statepop1', 'binary_statearea1', 'binary_gdp1']","['70', '90', '80']","2.0"
"M3QkqwsGG89cfZHwg8LJX8Bq8F","MGKIYt4eIYkJpObmAND5CF3F2P",8040296,1314,FALSE,58538,"['binary_statepop2', 'binary_statearea2', 'binary_gdp2']","['40', '40', '63']","2.0"
"M3QkqwsGG89cfZHwg8LJX8Bq8F","MGKIYt4eIYkJpObmAND5CF3F2P",8061463,1315,FALSE,21163,"['time1', 'time2', 'time3']","['30', '40', '49']","2.0"
"M3QkqwsGG89cfZHwg8LJX8Bq8F","MGKIYt4eIYkJpObmAND5CF3F2P",8079623,1316,FALSE,18156,"['time4', 'time5', 'time6']","['40', '50', '70']","2.0"
"M3QkqwsGG89cfZHwg8LJX8Bq8F","MGKIYt4eIYkJpObmAND5CF3F2P",8109262,1317,FALSE,29633,"['space1', 'space2', 'space3']","['80', '59', '70']","2.0"
"M3QkqwsGG89cfZHwg8LJX8Bq8F","MGKIYt4eIYkJpObmAND5CF3F2P",8128630,1318,FALSE,19363,"['space4', 'space5', 'space6']","['50', '39', '79']","2.0"
"M3QkqwsGG89cfZHwg8LJX8Bq8F","MGKIYt4eIYkJpObmAND5CF3F2P",8151773,1319,FALSE,23139,"['confidence_interval1', 'confidence_interval2', 'confidence_interval3']","['30', '40', '40']","2.0"
"oeHqGz00MABds0ueuvAhHv2B7f","WElEQnWexhxe01Pcg5uStXZHpg",2224236,122,FALSE,78876,"['trinary_A', 'trinary_B', 'trinary_C', 'trinary_AB', 'trinary_BC']","['20', '30', '50', '50', '79']","2.0"
"oeHqGz00MABds0ueuvAhHv2B7f","WElEQnWexhxe01Pcg5uStXZHpg",2270264,123,FALSE,46025,"['binary_statepop1', 'binary_statearea1', 'binary_gdp1']","['97', '100', '98']","2.0"
"oeHqGz00MABds0ueuvAhHv2B7f","WElEQnWexhxe01Pcg5uStXZHpg",2288905,124,FALSE,18638,"['binary_statepop2', 'binary_statearea2', 'binary_gdp2']","['1', '0', '3']","2.0"
"oeHqGz00MABds0ueuvAhHv2B7f","WElEQnWexhxe01Pcg5uStXZHpg",2322782,125,FALSE,33875,"['time1', 'time2', 'time3']","['9', '20', '25']","2.0"
"oeHqGz00MABds0ueuvAhHv2B7f","WElEQnWexhxe01Pcg5uStXZHpg",2357601,126,FALSE,34816,"['time4', 'time5', 'time6']","['10', '19', '35']","2.0"
"oeHqGz00MABds0ueuvAhHv2B7f","WElEQnWexhxe01Pcg5uStXZHpg",2386251,127,FALSE,28648,"['space1', 'space2', 'space3']","['80', '95', '100']","2.0"
"oeHqGz00MABds0ueuvAhHv2B7f","WElEQnWexhxe01Pcg5uStXZHpg",2414773,128,FALSE,28519,"['space4', 'space5', 'space6']","['74', '84', '100']","2.0"
"oeHqGz00MABds0ueuvAhHv2B7f","WElEQnWexhxe01Pcg5uStXZHpg",2448390,129,FALSE,33615,"['confidence_interval1', 'confidence_interval2', 'confidence_interval3']","['10', '15', '19']","2.0"
"MNyIE31KbTEqCZOUsiD7W0U3Fe","VCCySxh2dWTl7lzcapNNUER6eH",5893766,1312,FALSE,61741,"['trinary_A', 'trinary_B', 'trinary_C', 'trinary_AB', 'trinary_BC']","['0', '30', '99', '2', '100']","2.0"
"MNyIE31KbTEqCZOUsiD7W0U3Fe","VCCySxh2dWTl7lzcapNNUER6eH",5923481,1313,FALSE,29713,"['binary_statepop1', 'binary_statearea1', 'binary_gdp1']","['70', '90', '90']","2.0"
"MNyIE31KbTEqCZOUsiD7W0U3Fe","VCCySxh2dWTl7lzcapNNUER6eH",5959065,1314,FALSE,35582,"['binary_statepop2', 'binary_statearea2', 'binary_gdp2']","['10', '30', '10']","2.0"
"MNyIE31KbTEqCZOUsiD7W0U3Fe","VCCySxh2dWTl7lzcapNNUER6eH",5991377,1315,FALSE,32310,"['time1', 'time2', 'time3']","['90', '90', '90']","2.0"
"MNyIE31KbTEqCZOUsiD7W0U3Fe","VCCySxh2dWTl7lzcapNNUER6eH",6012672,1316,FALSE,21294,"['time4', 'time5', 'time6']","['10', '80', '90']","2.0"
"MNyIE31KbTEqCZOUsiD7W0U3Fe","VCCySxh2dWTl7lzcapNNUER6eH",6041432,1317,FALSE,28758,"['space1', 'space2', 'space3']","['100', '100', '100']","2.0"
"MNyIE31KbTEqCZOUsiD7W0U3Fe","VCCySxh2dWTl7lzcapNNUER6eH",6066420,1318,FALSE,24986,"['space4', 'space5', 'space6']","['80', '90', '100']","2.0"
"MNyIE31KbTEqCZOUsiD7W0U3Fe","VCCySxh2dWTl7lzcapNNUER6eH",6101443,1319,FALSE,35021,"['confidence_interval1', 'confidence_interval2', 'confidence_interval3']","['100', '100', '100']","2.0"
"F1jX5a1fyhOmMSGGJ09OiO1Fjy","CAYe2jSag9ihrsM3ohgAjMimmI",4049806,1173,FALSE,34108,"['trinary_A', 'trinary_B', 'trinary_C', 'trinary_AB', 'trinary_BC']","['0', '0', '100', '0', '100']","2.0"
"F1jX5a1fyhOmMSGGJ09OiO1Fjy","CAYe2jSag9ihrsM3ohgAjMimmI",4075797,1174,FALSE,25989,"['binary_statepop1', 'binary_statearea1', 'binary_gdp1']","['80', '80', '100']","2.0"
"F1jX5a1fyhOmMSGGJ09OiO1Fjy","CAYe2jSag9ihrsM3ohgAjMimmI",4129847,1175,FALSE,54048,"['binary_statepop2', 'binary_statearea2', 'binary_gdp2']","['20', '20', '0']","2.0"
"F1jX5a1fyhOmMSGGJ09OiO1Fjy","CAYe2jSag9ihrsM3ohgAjMimmI",4160365,1176,FALSE,30517,"['time1', 'time2', 'time3']","['40', '39', '39']","2.0"
"F1jX5a1fyhOmMSGGJ09OiO1Fjy","CAYe2jSag9ihrsM3ohgAjMimmI",4169963,1177,FALSE,9597,"['time4', 'time5', 'time6']","['0', '10', '20']","2.0"
"F1jX5a1fyhOmMSGGJ09OiO1Fjy","CAYe2jSag9ihrsM3ohgAjMimmI",4185487,1178,FALSE,15523,"['space1', 'space2', 'space3']","['70', '80', '100']","2.0"
"F1jX5a1fyhOmMSGGJ09OiO1Fjy","CAYe2jSag9ihrsM3ohgAjMimmI",4201935,1179,FALSE,16447,"['space4', 'space5', 'space6']","['40', '50', '100']","2.0"
"F1jX5a1fyhOmMSGGJ09OiO1Fjy","CAYe2jSag9ihrsM3ohgAjMimmI",4252748,1180,FALSE,50812,"['confidence_interval1', 'confidence_interval2', 'confidence_interval3']","['50', '51', '50']","2.0"
"XyLJWymItQkYtW0DIEV6NehQSR","boTbQhPLtYJwa0MUE3sTJLQuVd",585835,42,FALSE,27392,"['trinary_A', 'trinary_B', 'trinary_C', 'trinary_AB', 'trinary_BC']","['24', '26', '74', '20', '98']","3.0"
"XyLJWymItQkYtW0DIEV6NehQSR","boTbQhPLtYJwa0MUE3sTJLQuVd",612428,43,FALSE,26587,"['binary_statepop1', 'binary_statearea1', 'binary_gdp1']","['62', '71', '73']","3.0"
"XyLJWymItQkYtW0DIEV6NehQSR","boTbQhPLtYJwa0MUE3sTJLQuVd",627057,44,FALSE,14625,"['binary_statepop2', 'binary_statearea2', 'binary_gdp2']","['39', '34', '35']","3.0"
"XyLJWymItQkYtW0DIEV6NehQSR","boTbQhPLtYJwa0MUE3sTJLQuVd",640569,45,FALSE,13507,"['time1', 'time2', 'time3']","['73', '84', '95']","3.0"
"XyLJWymItQkYtW0DIEV6NehQSR","boTbQhPLtYJwa0MUE3sTJLQuVd",650457,46,FALSE,9884,"['time4', 'time5', 'time6']","['27', '35', '41']","3.0"
"XyLJWymItQkYtW0DIEV6NehQSR","boTbQhPLtYJwa0MUE3sTJLQuVd",696978,47,FALSE,46514,"['space1', 'space2', 'space3']","['56', '67', '100']","3.0"
"XyLJWymItQkYtW0DIEV6NehQSR","boTbQhPLtYJwa0MUE3sTJLQuVd",706261,48,FALSE,9279,"['space4', 'space5', 'space6']","['63', '62', '70']","3.0"
"XyLJWymItQkYtW0DIEV6NehQSR","boTbQhPLtYJwa0MUE3sTJLQuVd",731327,49,FALSE,25063,"['confidence_interval1', 'confidence_interval2', 'confidence_interval3']","['44', '58', '77']","3.0"
"gAE2vR87PHDrVwMvMSPhZ6AYWV","OtXMagMMs2jN8QtkrIBfz1hqOB",125077,17,FALSE,61529,"['trinary_A', 'trinary_B', 'trinary_C', 'trinary_AB', 'trinary_BC']","['30', '1', '98', '1', '99']","2.0"
"gAE2vR87PHDrVwMvMSPhZ6AYWV","OtXMagMMs2jN8QtkrIBfz1hqOB",146914,18,FALSE,21828,"['binary_statepop1', 'binary_statearea1', 'binary_gdp1']","['79', '65', '31']","2.0"
"gAE2vR87PHDrVwMvMSPhZ6AYWV","OtXMagMMs2jN8QtkrIBfz1hqOB",164466,19,FALSE,17545,"['binary_statepop2', 'binary_statearea2', 'binary_gdp2']","['29', '37', '34']","2.0"
"gAE2vR87PHDrVwMvMSPhZ6AYWV","OtXMagMMs2jN8QtkrIBfz1hqOB",187298,20,FALSE,22826,"['time1', 'time2', 'time3']","['72', '87', '94']","2.0"
"gAE2vR87PHDrVwMvMSPhZ6AYWV","OtXMagMMs2jN8QtkrIBfz1hqOB",201586,21,FALSE,14283,"['time4', 'time5', 'time6']","['29', '40', '52']","2.0"
"gAE2vR87PHDrVwMvMSPhZ6AYWV","OtXMagMMs2jN8QtkrIBfz1hqOB",223434,22,FALSE,21842,"['space1', 'space2', 'space3']","['60', '77', '75']","2.0"
"gAE2vR87PHDrVwMvMSPhZ6AYWV","OtXMagMMs2jN8QtkrIBfz1hqOB",237602,23,FALSE,14163,"['space4', 'space5', 'space6']","['21', '26', '74']","2.0"
"gAE2vR87PHDrVwMvMSPhZ6AYWV","OtXMagMMs2jN8QtkrIBfz1hqOB",266778,24,FALSE,29171,"['confidence_interval1', 'confidence_interval2', 'confidence_interval3']","['71', '64', '65']","2.0"
"44xwQio3fW3tYg3htRNjpHY5VQ","CEzDa8gx1mNJmyhsUKB4QZAook",16327716,1137,FALSE,45819,"['trinary_A', 'trinary_B', 'trinary_C', 'trinary_AB', 'trinary_BC']","['0', '0', '100', '0', '100']","2.0"
"44xwQio3fW3tYg3htRNjpHY5VQ","CEzDa8gx1mNJmyhsUKB4QZAook",16358263,1138,FALSE,30545,"['binary_statepop1', 'binary_statearea1', 'binary_gdp1']","['80', '20', '91']","2.0"
"44xwQio3fW3tYg3htRNjpHY5VQ","CEzDa8gx1mNJmyhsUKB4QZAook",16381884,1139,FALSE,23617,"['binary_statepop2', 'binary_statearea2', 'binary_gdp2']","['19', '79', '9']","2.0"
"44xwQio3fW3tYg3htRNjpHY5VQ","CEzDa8gx1mNJmyhsUKB4QZAook",16409326,1140,FALSE,27439,"['time1', 'time2', 'time3']","['30', '29', '29']","2.0"
"44xwQio3fW3tYg3htRNjpHY5VQ","CEzDa8gx1mNJmyhsUKB4QZAook",16424602,1141,FALSE,15272,"['time4', 'time5', 'time6']","['38', '49', '70']","2.0"
"44xwQio3fW3tYg3htRNjpHY5VQ","CEzDa8gx1mNJmyhsUKB4QZAook",16443258,1142,FALSE,18654,"['space1', 'space2', 'space3']","['100', '100', '100']","2.0"
"44xwQio3fW3tYg3htRNjpHY5VQ","CEzDa8gx1mNJmyhsUKB4QZAook",16465066,1143,FALSE,21805,"['space4', 'space5', 'space6']","['50', '50', '69']","2.0"
"44xwQio3fW3tYg3htRNjpHY5VQ","CEzDa8gx1mNJmyhsUKB4QZAook",16486697,1144,FALSE,21628,"['confidence_interval1', 'confidence_interval2', 'confidence_interval3']","['78', '80', '80']","2.0"
"p5bY6MRaajBlnoMdRAvyO5gMIh","FlM4FSUMkEHPKmT4SX01bQ7Xr5",3288160,650,FALSE,55639,"['trinary_A', 'trinary_B', 'trinary_C', 'trinary_AB', 'trinary_BC']","['51', '69', '76', '10', '96']","2.0"
"p5bY6MRaajBlnoMdRAvyO5gMIh","FlM4FSUMkEHPKmT4SX01bQ7Xr5",3307176,651,FALSE,19015,"['binary_statepop1', 'binary_statearea1', 'binary_gdp1']","['78', '40', '98']","2.0"
"p5bY6MRaajBlnoMdRAvyO5gMIh","FlM4FSUMkEHPKmT4SX01bQ7Xr5",3323248,652,FALSE,16071,"['binary_statepop2', 'binary_statearea2', 'binary_gdp2']","['21', '13', '4']","2.0"
"p5bY6MRaajBlnoMdRAvyO5gMIh","FlM4FSUMkEHPKmT4SX01bQ7Xr5",3342024,653,FALSE,18775,"['time1', 'time2', 'time3']","['60', '76', '85']","2.0"
"p5bY6MRaajBlnoMdRAvyO5gMIh","FlM4FSUMkEHPKmT4SX01bQ7Xr5",3358088,654,FALSE,16063,"['time4', 'time5', 'time6']","['53', '70', '84']","2.0"
"p5bY6MRaajBlnoMdRAvyO5gMIh","FlM4FSUMkEHPKmT4SX01bQ7Xr5",3374319,655,FALSE,16230,"['space1', 'space2', 'space3']","['38', '29', '78']","2.0"
"p5bY6MRaajBlnoMdRAvyO5gMIh","FlM4FSUMkEHPKmT4SX01bQ7Xr5",3392471,656,FALSE,18151,"['space4', 'space5', 'space6']","['26', '47', '71']","2.0"
"p5bY6MRaajBlnoMdRAvyO5gMIh","FlM4FSUMkEHPKmT4SX01bQ7Xr5",3413055,657,FALSE,20583,"['confidence_interval1', 'confidence_interval2', 'confidence_interval3']","['39', '48', '62']","2.0"
"KUD1kf6hnb3NShner2z1iesdGV","v0Jaq1J5Utn3cYRbPzF62YtBu4",4996509,1284,FALSE,42907,"['trinary_A', 'trinary_B', 'trinary_C', 'trinary_AB', 'trinary_BC']","['28', '33', '83', '23', '90']","2.0"
"KUD1kf6hnb3NShner2z1iesdGV","v0Jaq1J5Utn3cYRbPzF62YtBu4",5018287,1285,FALSE,21776,"['binary_statepop1', 'binary_statearea1', 'binary_gdp1']","['66', '74', '65']","2.0"
"KUD1kf6hnb3NShner2z1iesdGV","v0Jaq1J5Utn3cYRbPzF62YtBu4",5037875,1286,FALSE,19583,"['binary_statepop2', 'binary_statearea2', 'binary_gdp2']","['50', '37', '37']","2.0"
"KUD1kf6hnb3NShner2z1iesdGV","v0Jaq1J5Utn3cYRbPzF62YtBu4",5050756,1287,FALSE,12878,"['time1', 'time2', 'time3']","['50', '51', '55']","2.0"
"KUD1kf6hnb3NShner2z1iesdGV","v0Jaq1J5Utn3cYRbPzF62YtBu4",5060813,1288,FALSE,10055,"['time4', 'time5', 'time6']","['30', '36', '45']","2.0"
"KUD1kf6hnb3NShner2z1iesdGV","v0Jaq1J5Utn3cYRbPzF62YtBu4",5083779,1289,FALSE,22964,"['space1', 'space2', 'space3']","['55', '69', '56']","2.0"
"KUD1kf6hnb3NShner2z1iesdGV","v0Jaq1J5Utn3cYRbPzF62YtBu4",5099285,1290,FALSE,15505,"['space4', 'space5', 'space6']","['50', '60', '57']","2.0"
"KUD1kf6hnb3NShner2z1iesdGV","v0Jaq1J5Utn3cYRbPzF62YtBu4",5112693,1291,FALSE,13407,"['confidence_interval1', 'confidence_interval2', 'confidence_interval3']","['64', '63', '63']","2.0"
"la8x8AdnYUHaEan01UUEsEl0S7","Dd6CRALvZox8EUK5YId54RXGxX",4137153,1118,FALSE,61376,"['trinary_A', 'trinary_B', 'trinary_C', 'trinary_AB', 'trinary_BC']","['20', '31', '60', '42', '70']","2.0"
"la8x8AdnYUHaEan01UUEsEl0S7","Dd6CRALvZox8EUK5YId54RXGxX",4165064,1119,FALSE,27907,"['binary_statepop1', 'binary_statearea1', 'binary_gdp1']","['39', '20', '39']","2.0"
"la8x8AdnYUHaEan01UUEsEl0S7","Dd6CRALvZox8EUK5YId54RXGxX",4184468,1120,FALSE,19399,"['binary_statepop2', 'binary_statearea2', 'binary_gdp2']","['59', '69', '55']","2.0"
"la8x8AdnYUHaEan01UUEsEl0S7","Dd6CRALvZox8EUK5YId54RXGxX",4201900,1121,FALSE,17428,"['time1', 'time2', 'time3']","['57', '49', '40']","2.0"
"la8x8AdnYUHaEan01UUEsEl0S7","Dd6CRALvZox8EUK5YId54RXGxX",4216314,1122,FALSE,14409,"['time4', 'time5', 'time6']","['46', '56', '58']","2.0"
"la8x8AdnYUHaEan01UUEsEl0S7","Dd6CRALvZox8EUK5YId54RXGxX",4245043,1123,FALSE,28724,"['space1', 'space2', 'space3']","['60', '75', '79']","2.0"
"la8x8AdnYUHaEan01UUEsEl0S7","Dd6CRALvZox8EUK5YId54RXGxX",4263211,1124,FALSE,18164,"['space4', 'space5', 'space6']","['43', '37', '57']","2.0"
"la8x8AdnYUHaEan01UUEsEl0S7","Dd6CRALvZox8EUK5YId54RXGxX",4283698,1125,FALSE,20483,"['confidence_interval1', 'confidence_interval2', 'confidence_interval3']","['57', '64', '72']","2.0"
"CftPJFR3yijEMNwpuvLEHE8vV1","vZkqmFf0VCMU02BsS1m8sDjvr4",3758247,1185,FALSE,27997,"['trinary_A', 'trinary_B', 'trinary_C', 'trinary_AB', 'trinary_BC']","['40', '50', '60', '59', '39']","3.0"
"CftPJFR3yijEMNwpuvLEHE8vV1","vZkqmFf0VCMU02BsS1m8sDjvr4",3772300,1186,FALSE,14045,"['binary_statepop1', 'binary_statearea1', 'binary_gdp1']","['43', '51', '50']","3.0"
"CftPJFR3yijEMNwpuvLEHE8vV1","vZkqmFf0VCMU02BsS1m8sDjvr4",3787009,1187,FALSE,14702,"['binary_statepop2', 'binary_statearea2', 'binary_gdp2']","['53', '51', '67']","3.0"
"CftPJFR3yijEMNwpuvLEHE8vV1","vZkqmFf0VCMU02BsS1m8sDjvr4",3802020,1188,FALSE,15005,"['time1', 'time2', 'time3']","['38', '30', '29']","3.0"
"CftPJFR3yijEMNwpuvLEHE8vV1","vZkqmFf0VCMU02BsS1m8sDjvr4",3813525,1189,FALSE,11498,"['time4', 'time5', 'time6']","['39', '39', '50']","3.0"
"CftPJFR3yijEMNwpuvLEHE8vV1","vZkqmFf0VCMU02BsS1m8sDjvr4",3825723,1190,FALSE,12192,"['space1', 'space2', 'space3']","['33', '38', '50']","3.0"
"CftPJFR3yijEMNwpuvLEHE8vV1","vZkqmFf0VCMU02BsS1m8sDjvr4",3837833,1191,FALSE,12103,"['space4', 'space5', 'space6']","['48', '59', '58']","3.0"
"CftPJFR3yijEMNwpuvLEHE8vV1","vZkqmFf0VCMU02BsS1m8sDjvr4",3844507,1192,FALSE,6668,"['confidence_interval1', 'confidence_interval2', 'confidence_interval3']","['41', '40', '50']","3.0"
"a19rHSdiFVGUooGIpt4JTlm8rU","E25AjyyKxoktoEdibQFPF6E1rz",384453,26,FALSE,40839,"['trinary_A', 'trinary_B', 'trinary_C', 'trinary_AB', 'trinary_BC']","['60', '76', '72', '65', '84']","3.0"
"a19rHSdiFVGUooGIpt4JTlm8rU","E25AjyyKxoktoEdibQFPF6E1rz",417396,27,FALSE,32938,"['binary_statepop1', 'binary_statearea1', 'binary_gdp1']","['100', '20', '53']","3.0"
"a19rHSdiFVGUooGIpt4JTlm8rU","E25AjyyKxoktoEdibQFPF6E1rz",436395,28,FALSE,18994,"['binary_statepop2', 'binary_statearea2', 'binary_gdp2']","['0', '80', '49']","3.0"
"a19rHSdiFVGUooGIpt4JTlm8rU","E25AjyyKxoktoEdibQFPF6E1rz",458133,29,FALSE,21732,"['time1', 'time2', 'time3']","['85', '90', '91']","3.0"
"a19rHSdiFVGUooGIpt4JTlm8rU","E25AjyyKxoktoEdibQFPF6E1rz",479536,30,FALSE,21399,"['time4', 'time5', 'time6']","['14', '15', '17']","3.0"
"a19rHSdiFVGUooGIpt4JTlm8rU","E25AjyyKxoktoEdibQFPF6E1rz",500468,31,FALSE,20927,"['space1', 'space2', 'space3']","['94', '100', '100']","3.0"
"a19rHSdiFVGUooGIpt4JTlm8rU","E25AjyyKxoktoEdibQFPF6E1rz",517149,32,FALSE,16677,"['space4', 'space5', 'space6']","['74', '75', '100']","3.0"
"a19rHSdiFVGUooGIpt4JTlm8rU","E25AjyyKxoktoEdibQFPF6E1rz",550617,33,FALSE,33462,"['confidence_interval1', 'confidence_interval2', 'confidence_interval3']","['98', '100', '100']","3.0"
"1ZpoTHwtV5ZupDMh0yOraaMYTG","nmia5NKdcaSuqrD5c2ApVcJJIK",395458,19,FALSE,91565,"['trinary_A', 'trinary_B', 'trinary_C', 'trinary_AB', 'trinary_BC']","['10', '10', '79', '20', '90']","3.0"
"1ZpoTHwtV5ZupDMh0yOraaMYTG","nmia5NKdcaSuqrD5c2ApVcJJIK",435098,20,FALSE,39638,"['binary_statepop1', 'binary_statearea1', 'binary_gdp1']","['90', '70', '80']","3.0"
"1ZpoTHwtV5ZupDMh0yOraaMYTG","nmia5NKdcaSuqrD5c2ApVcJJIK",455850,21,FALSE,20751,"['binary_statepop2', 'binary_statearea2', 'binary_gdp2']","['10', '30', '19']","3.0"
"1ZpoTHwtV5ZupDMh0yOraaMYTG","nmia5NKdcaSuqrD5c2ApVcJJIK",486002,22,FALSE,30151,"['time1', 'time2', 'time3']","['1', '3', '5']","3.0"
"1ZpoTHwtV5ZupDMh0yOraaMYTG","nmia5NKdcaSuqrD5c2ApVcJJIK",532394,23,FALSE,46391,"['time4', 'time5', 'time6']","['1', '3', '5']","3.0"
"1ZpoTHwtV5ZupDMh0yOraaMYTG","nmia5NKdcaSuqrD5c2ApVcJJIK",567490,24,FALSE,35095,"['space1', 'space2', 'space3']","['50', '94', '99']","3.0"
"1ZpoTHwtV5ZupDMh0yOraaMYTG","nmia5NKdcaSuqrD5c2ApVcJJIK",601634,25,FALSE,34142,"['space4', 'space5', 'space6']","['36', '80', '94']","3.0"
"1ZpoTHwtV5ZupDMh0yOraaMYTG","nmia5NKdcaSuqrD5c2ApVcJJIK",631882,26,FALSE,30247,"['confidence_interval1', 'confidence_interval2', 'confidence_interval3']","['75', '80', '84']","3.0"
"3RiQtKgue68aiSeE0OqmSYWM5a","qfvdLYQenf8oBTTHc7VhZlZIle",2232576,752,FALSE,35941,"['trinary_A', 'trinary_B', 'trinary_C', 'trinary_AB', 'trinary_BC']","['25', '26', '89', '23', '97']","3.0"
"3RiQtKgue68aiSeE0OqmSYWM5a","qfvdLYQenf8oBTTHc7VhZlZIle",2253551,753,FALSE,20973,"['binary_statepop1', 'binary_statearea1', 'binary_gdp1']","['79', '95', '97']","3.0"
"3RiQtKgue68aiSeE0OqmSYWM5a","qfvdLYQenf8oBTTHc7VhZlZIle",2271720,754,FALSE,18168,"['binary_statepop2', 'binary_statearea2', 'binary_gdp2']","['18', '17', '15']","3.0"
"3RiQtKgue68aiSeE0OqmSYWM5a","qfvdLYQenf8oBTTHc7VhZlZIle",2288518,755,FALSE,16797,"['time1', 'time2', 'time3']","['34', '38', '41']","3.0"
"3RiQtKgue68aiSeE0OqmSYWM5a","qfvdLYQenf8oBTTHc7VhZlZIle",2300272,756,FALSE,11752,"['time4', 'time5', 'time6']","['70', '79', '88']","3.0"
"3RiQtKgue68aiSeE0OqmSYWM5a","qfvdLYQenf8oBTTHc7VhZlZIle",2321789,757,FALSE,21516,"['space1', 'space2', 'space3']","['83', '90', '97']","3.0"
"3RiQtKgue68aiSeE0OqmSYWM5a","qfvdLYQenf8oBTTHc7VhZlZIle",2340031,758,FALSE,18241,"['space4', 'space5', 'space6']","['53', '74', '80']","3.0"
"3RiQtKgue68aiSeE0OqmSYWM5a","qfvdLYQenf8oBTTHc7VhZlZIle",2372223,759,FALSE,32190,"['confidence_interval1', 'confidence_interval2', 'confidence_interval3']","['49', '88', '90']","3.0"
"nPHlI0wMezMlr4dlNlYp3MfY8E","fEiTjWQ7jfEGhhS73FOiDHRyB5",3459312,1154,FALSE,72608,"['trinary_A', 'trinary_B', 'trinary_C', 'trinary_AB', 'trinary_BC']","['10', '40', '80', '19', '89']","3.0"
"nPHlI0wMezMlr4dlNlYp3MfY8E","fEiTjWQ7jfEGhhS73FOiDHRyB5",3499125,1155,FALSE,39809,"['binary_statepop1', 'binary_statearea1', 'binary_gdp1']","['55', '61', '83']","3.0"
"nPHlI0wMezMlr4dlNlYp3MfY8E","fEiTjWQ7jfEGhhS73FOiDHRyB5",3524741,1156,FALSE,25613,"['binary_statepop2', 'binary_statearea2', 'binary_gdp2']","['30', '29', '22']","3.0"
"nPHlI0wMezMlr4dlNlYp3MfY8E","fEiTjWQ7jfEGhhS73FOiDHRyB5",3556641,1157,FALSE,31897,"['time1', 'time2', 'time3']","['21', '27', '36']","3.0"
