"session_id","session_restart_id","time_elapsed","trial_index","custom_timer_ended_trial","trial_name","response","rt","admc_id","admc_response","wave"
"VZbfC2MGhLPLp7r6FPuaUY5E8l","cGasZ1EIIEkNWEkGJqrp96fO5Z",3855628,845,FALSE,"admc_rp_a_trial","{'rp_a1': '24', 'rp_a2': '1', 'rp_a3': '9', 'rp_a4': '30', 'rp_a5': '49', 'rp_a6': '10', 'rp_a7': '1', 'rp_a8': '50', 'rp_a9': '10', 'rp_a10': '79'}",120919,"['rp_a1', 'rp_a2', 'rp_a3', 'rp_a4', 'rp_a5', 'rp_a6', 'rp_a7', 'rp_a8', 'rp_a9', 'rp_a10']","['24', '1', '9', '30', '49', '10', '1', '50', '10', '79']","2.0"
"VZbfC2MGhLPLp7r6FPuaUY5E8l","cGasZ1EIIEkNWEkGJqrp96fO5Z",3940649,846,FALSE,"admc_rp_b_trial","{'rp_b1': '20', 'rp_b2': '24', 'rp_b3': '29', 'rp_b4': '29', 'rp_b5': '50', 'rp_b6': '9', 'rp_b7': '1', 'rp_b8': '49', 'rp_b9': '79', 'rp_b10': '80'}",85018,"['rp_b1', 'rp_b2', 'rp_b3', 'rp_b4', 'rp_b5', 'rp_b6', 'rp_b7', 'rp_b8', 'rp_b9', 'rp_b10']","['20', '24', '29', '29', '50', '9', '1', '49', '79', '80']","2.0"
"VZbfC2MGhLPLp7r6FPuaUY5E8l","cGasZ1EIIEkNWEkGJqrp96fO5Z",4471768,1207,FALSE,"resistance_to_framing_trial","4",47051,"a2_1","4","2.0"
"VZbfC2MGhLPLp7r6FPuaUY5E8l","cGasZ1EIIEkNWEkGJqrp96fO5Z",4487036,1208,FALSE,"resistance_to_framing_trial","5",15266,"a2_2","5","2.0"
"VZbfC2MGhLPLp7r6FPuaUY5E8l","cGasZ1EIIEkNWEkGJqrp96fO5Z",4510432,1209,FALSE,"resistance_to_framing_trial","5",23394,"a2_3","5","2.0"
"VZbfC2MGhLPLp7r6FPuaUY5E8l","cGasZ1EIIEkNWEkGJqrp96fO5Z",4529818,1210,FALSE,"resistance_to_framing_trial","4",19385,"a2_4","4","2.0"
"VZbfC2MGhLPLp7r6FPuaUY5E8l","cGasZ1EIIEkNWEkGJqrp96fO5Z",4548108,1211,FALSE,"resistance_to_framing_trial","5",18288,"a2_5","5","2.0"
"VZbfC2MGhLPLp7r6FPuaUY5E8l","cGasZ1EIIEkNWEkGJqrp96fO5Z",4576922,1212,FALSE,"resistance_to_framing_trial","1",28813,"a2_6","1","2.0"
"VZbfC2MGhLPLp7r6FPuaUY5E8l","cGasZ1EIIEkNWEkGJqrp96fO5Z",4606576,1213,FALSE,"resistance_to_framing_trial","4",29653,"a2_7","4","2.0"
"VZbfC2MGhLPLp7r6FPuaUY5E8l","cGasZ1EIIEkNWEkGJqrp96fO5Z",4645422,1220,FALSE,"resistance_to_framing_trial","1",30663,"rc1_1","1","2.0"
"VZbfC2MGhLPLp7r6FPuaUY5E8l","cGasZ1EIIEkNWEkGJqrp96fO5Z",4691938,1221,FALSE,"resistance_to_framing_trial","3",46514,"rc1_2","3","2.0"
"VZbfC2MGhLPLp7r6FPuaUY5E8l","cGasZ1EIIEkNWEkGJqrp96fO5Z",4748136,1222,FALSE,"resistance_to_framing_trial","3",56196,"rc1_3","3","2.0"
"VZbfC2MGhLPLp7r6FPuaUY5E8l","cGasZ1EIIEkNWEkGJqrp96fO5Z",4774258,1223,FALSE,"resistance_to_framing_trial","6",26121,"rc1_4","6","2.0"
"VZbfC2MGhLPLp7r6FPuaUY5E8l","cGasZ1EIIEkNWEkGJqrp96fO5Z",4835261,1224,TRUE,"resistance_to_framing_trial","1",61002,"rc1_5","1","2.0"
"VZbfC2MGhLPLp7r6FPuaUY5E8l","cGasZ1EIIEkNWEkGJqrp96fO5Z",4862434,1225,FALSE,"resistance_to_framing_trial","2",27172,"rc1_6","2","2.0"
"VZbfC2MGhLPLp7r6FPuaUY5E8l","cGasZ1EIIEkNWEkGJqrp96fO5Z",4892215,1226,FALSE,"resistance_to_framing_trial","1",29779,"rc1_7","1","2.0"
"Z74YBwECpL8QkLR6RuxT2rrff6","hkshJADA5gEvvtwdyiZzMC4WH7",603786,594,FALSE,"resistance_to_framing_trial","1",11769,"a1_1","1.0","3.0"
"Z74YBwECpL8QkLR6RuxT2rrff6","hkshJADA5gEvvtwdyiZzMC4WH7",615331,595,FALSE,"resistance_to_framing_trial","4",11544,"a1_2","4.0","3.0"
"Z74YBwECpL8QkLR6RuxT2rrff6","hkshJADA5gEvvtwdyiZzMC4WH7",625758,596,FALSE,"resistance_to_framing_trial","5",10425,"a1_3","5.0","3.0"
"Z74YBwECpL8QkLR6RuxT2rrff6","hkshJADA5gEvvtwdyiZzMC4WH7",638031,597,FALSE,"resistance_to_framing_trial","4",12272,"a1_4","4.0","3.0"
"Z74YBwECpL8QkLR6RuxT2rrff6","hkshJADA5gEvvtwdyiZzMC4WH7",643585,598,FALSE,"resistance_to_framing_trial","4",5552,"a1_5","4.0","3.0"
"Z74YBwECpL8QkLR6RuxT2rrff6","hkshJADA5gEvvtwdyiZzMC4WH7",651214,599,FALSE,"resistance_to_framing_trial","4",7627,"a1_6","4.0","3.0"
"Z74YBwECpL8QkLR6RuxT2rrff6","hkshJADA5gEvvtwdyiZzMC4WH7",662499,600,FALSE,"resistance_to_framing_trial","4",11284,"a1_7","4.0","3.0"
"Z74YBwECpL8QkLR6RuxT2rrff6","hkshJADA5gEvvtwdyiZzMC4WH7",18307630,1296,FALSE,"resistance_to_framing_trial","6",23707,"rc2_1","6.0","3.0"
"Z74YBwECpL8QkLR6RuxT2rrff6","hkshJADA5gEvvtwdyiZzMC4WH7",18337314,1297,FALSE,"resistance_to_framing_trial","3",29682,"rc2_2","3.0","3.0"
"Z74YBwECpL8QkLR6RuxT2rrff6","hkshJADA5gEvvtwdyiZzMC4WH7",18353960,1298,FALSE,"resistance_to_framing_trial","4",16644,"rc2_3","4.0","3.0"
"Z74YBwECpL8QkLR6RuxT2rrff6","hkshJADA5gEvvtwdyiZzMC4WH7",18375076,1299,FALSE,"resistance_to_framing_trial","5",21114,"rc2_4","5.0","3.0"
"Z74YBwECpL8QkLR6RuxT2rrff6","hkshJADA5gEvvtwdyiZzMC4WH7",18394234,1300,FALSE,"resistance_to_framing_trial","4",19157,"rc2_5","4.0","3.0"
"Z74YBwECpL8QkLR6RuxT2rrff6","hkshJADA5gEvvtwdyiZzMC4WH7",18424898,1301,FALSE,"resistance_to_framing_trial","1",30663,"rc2_6","1.0","3.0"
"Z74YBwECpL8QkLR6RuxT2rrff6","hkshJADA5gEvvtwdyiZzMC4WH7",18447254,1302,FALSE,"resistance_to_framing_trial","6",22354,"rc2_7","6.0","3.0"
"Z74YBwECpL8QkLR6RuxT2rrff6","hkshJADA5gEvvtwdyiZzMC4WH7",18540885,1310,FALSE,"admc_dr_trial","{'dr1': ['C']}",24396,"dr1","1.0","3.0"
"Z74YBwECpL8QkLR6RuxT2rrff6","hkshJADA5gEvvtwdyiZzMC4WH7",18565103,1311,FALSE,"admc_dr_trial","{'dr2': ['D']}",24209,"dr2","1.0","3.0"
"Z74YBwECpL8QkLR6RuxT2rrff6","hkshJADA5gEvvtwdyiZzMC4WH7",18587081,1312,FALSE,"admc_dr_trial","{'dr3': ['C']}",21970,"dr3","1.0","3.0"
"Z74YBwECpL8QkLR6RuxT2rrff6","hkshJADA5gEvvtwdyiZzMC4WH7",18598481,1313,FALSE,"admc_dr_trial","{'dr4': ['None']}",11393,"dr4","1.0","3.0"
"Z74YBwECpL8QkLR6RuxT2rrff6","hkshJADA5gEvvtwdyiZzMC4WH7",18631912,1314,FALSE,"admc_dr_trial","{'dr5': ['B']}",33422,"dr5","0.0","3.0"
"Z74YBwECpL8QkLR6RuxT2rrff6","hkshJADA5gEvvtwdyiZzMC4WH7",18651954,1315,FALSE,"admc_dr_trial","{'dr6': ['E']}",20034,"dr6","1.0","3.0"
"Z74YBwECpL8QkLR6RuxT2rrff6","hkshJADA5gEvvtwdyiZzMC4WH7",18686191,1316,FALSE,"admc_dr_trial","{'dr7': ['E']}",34230,"dr7","1.0","3.0"
"Z74YBwECpL8QkLR6RuxT2rrff6","hkshJADA5gEvvtwdyiZzMC4WH7",18717803,1317,FALSE,"admc_dr_trial","{'dr8': ['A', 'C']}",31604,"dr8","2.0","3.0"
"Z74YBwECpL8QkLR6RuxT2rrff6","hkshJADA5gEvvtwdyiZzMC4WH7",18742751,1318,FALSE,"admc_dr_trial","{'dr9': ['A', 'D', 'E']}",24940,"dr9","3.0","3.0"
"Z74YBwECpL8QkLR6RuxT2rrff6","hkshJADA5gEvvtwdyiZzMC4WH7",18788762,1319,TRUE,"admc_dr_trial","{'dr10': ['A', 'C', 'D']}",46002,"dr10","2.0","3.0"
"RaBGaTuaZSYB8YVa5fShsHGDYW","kQmz73e3UoDqsjuake8sFFtTZ4",17848,13,FALSE,"resistance_to_framing_trial","6",10843,"a2_1","6","2.0"
"RaBGaTuaZSYB8YVa5fShsHGDYW","kQmz73e3UoDqsjuake8sFFtTZ4",24305,14,FALSE,"resistance_to_framing_trial","6",6446,"a2_2","6","2.0"
"RaBGaTuaZSYB8YVa5fShsHGDYW","kQmz73e3UoDqsjuake8sFFtTZ4",26720,15,FALSE,"resistance_to_framing_trial","6",2406,"a2_3","6","2.0"
"RaBGaTuaZSYB8YVa5fShsHGDYW","kQmz73e3UoDqsjuake8sFFtTZ4",29007,16,FALSE,"resistance_to_framing_trial","6",2276,"a2_4","6","2.0"
"RaBGaTuaZSYB8YVa5fShsHGDYW","kQmz73e3UoDqsjuake8sFFtTZ4",31969,17,FALSE,"resistance_to_framing_trial","6",2952,"a2_5","6","2.0"
"RaBGaTuaZSYB8YVa5fShsHGDYW","kQmz73e3UoDqsjuake8sFFtTZ4",35609,18,FALSE,"resistance_to_framing_trial","6",3624,"a2_6","6","2.0"
"RaBGaTuaZSYB8YVa5fShsHGDYW","kQmz73e3UoDqsjuake8sFFtTZ4",41112,19,FALSE,"resistance_to_framing_trial","6",5489,"a2_7","6","2.0"
"RaBGaTuaZSYB8YVa5fShsHGDYW","kQmz73e3UoDqsjuake8sFFtTZ4",260927,92,FALSE,"resistance_to_framing_trial","4",3415,"rc1_1","4","2.0"
"RaBGaTuaZSYB8YVa5fShsHGDYW","kQmz73e3UoDqsjuake8sFFtTZ4",265451,93,FALSE,"resistance_to_framing_trial","4",4516,"rc1_2","4","2.0"
"RaBGaTuaZSYB8YVa5fShsHGDYW","kQmz73e3UoDqsjuake8sFFtTZ4",268866,94,FALSE,"resistance_to_framing_trial","4",3408,"rc1_3","4","2.0"
"RaBGaTuaZSYB8YVa5fShsHGDYW","kQmz73e3UoDqsjuake8sFFtTZ4",305209,95,FALSE,"resistance_to_framing_trial","4",36335,"rc1_4","4","2.0"
"RaBGaTuaZSYB8YVa5fShsHGDYW","kQmz73e3UoDqsjuake8sFFtTZ4",308653,96,FALSE,"resistance_to_framing_trial","4",3438,"rc1_5","4","2.0"
"RaBGaTuaZSYB8YVa5fShsHGDYW","kQmz73e3UoDqsjuake8sFFtTZ4",310758,97,FALSE,"resistance_to_framing_trial","3",2099,"rc1_6","3","2.0"
"RaBGaTuaZSYB8YVa5fShsHGDYW","kQmz73e3UoDqsjuake8sFFtTZ4",312424,98,FALSE,"resistance_to_framing_trial","3",1660,"rc1_7","3","2.0"
"RaBGaTuaZSYB8YVa5fShsHGDYW","kQmz73e3UoDqsjuake8sFFtTZ4",335970,105,FALSE,"admc_rp_a_trial","{'rp_a1': '59', 'rp_a2': '57', 'rp_a3': '63', 'rp_a4': '63', 'rp_a5': '66', 'rp_a6': '64', 'rp_a7': '63', 'rp_a8': '67', 'rp_a9': '68', 'rp_a10': '59'}",18753,"['rp_a1', 'rp_a2', 'rp_a3', 'rp_a4', 'rp_a5', 'rp_a6', 'rp_a7', 'rp_a8', 'rp_a9', 'rp_a10']","['59', '57', '63', '63', '66', '64', '63', '67', '68', '59']","2.0"
"RaBGaTuaZSYB8YVa5fShsHGDYW","kQmz73e3UoDqsjuake8sFFtTZ4",352442,106,FALSE,"admc_rp_b_trial","{'rp_b1': '60', 'rp_b2': '53', 'rp_b3': '53', 'rp_b4': '53', 'rp_b5': '54', 'rp_b6': '54', 'rp_b7': '50', 'rp_b8': '55', 'rp_b9': '54', 'rp_b10': '53'}",16455,"['rp_b1', 'rp_b2', 'rp_b3', 'rp_b4', 'rp_b5', 'rp_b6', 'rp_b7', 'rp_b8', 'rp_b9', 'rp_b10']","['60', '53', '53', '53', '54', '54', '50', '55', '54', '53']","2.0"
"NhLuEUpFKVLMXcgOH9FRZibbUN","8bqynu00xCMLlut8SOlhm9JjIj",1486350,741,FALSE,"resistance_to_framing_trial","4",4680,"a1_1","4.0","3.0"
"NhLuEUpFKVLMXcgOH9FRZibbUN","8bqynu00xCMLlut8SOlhm9JjIj",1488350,742,FALSE,"resistance_to_framing_trial","4",1991,"a1_2","4.0","3.0"
"NhLuEUpFKVLMXcgOH9FRZibbUN","8bqynu00xCMLlut8SOlhm9JjIj",1489914,743,FALSE,"resistance_to_framing_trial","4",1558,"a1_3","4.0","3.0"
"NhLuEUpFKVLMXcgOH9FRZibbUN","8bqynu00xCMLlut8SOlhm9JjIj",1491425,744,FALSE,"resistance_to_framing_trial","4",1504,"a1_4","4.0","3.0"
"NhLuEUpFKVLMXcgOH9FRZibbUN","8bqynu00xCMLlut8SOlhm9JjIj",1493173,745,FALSE,"resistance_to_framing_trial","4",1742,"a1_5","4.0","3.0"
"NhLuEUpFKVLMXcgOH9FRZibbUN","8bqynu00xCMLlut8SOlhm9JjIj",1494992,746,FALSE,"resistance_to_framing_trial","5",1812,"a1_6","5.0","3.0"
"NhLuEUpFKVLMXcgOH9FRZibbUN","8bqynu00xCMLlut8SOlhm9JjIj",1496768,747,FALSE,"resistance_to_framing_trial","4",1769,"a1_7","4.0","3.0"
"NhLuEUpFKVLMXcgOH9FRZibbUN","8bqynu00xCMLlut8SOlhm9JjIj",2289269,1201,FALSE,"resistance_to_framing_trial","4",2946,"rc2_1","4.0","3.0"
"NhLuEUpFKVLMXcgOH9FRZibbUN","8bqynu00xCMLlut8SOlhm9JjIj",2291540,1202,FALSE,"resistance_to_framing_trial","4",2266,"rc2_2","4.0","3.0"
"NhLuEUpFKVLMXcgOH9FRZibbUN","8bqynu00xCMLlut8SOlhm9JjIj",2293084,1203,FALSE,"resistance_to_framing_trial","3",1538,"rc2_3","3.0","3.0"
"NhLuEUpFKVLMXcgOH9FRZibbUN","8bqynu00xCMLlut8SOlhm9JjIj",2294585,1204,FALSE,"resistance_to_framing_trial","4",1496,"rc2_4","4.0","3.0"
"NhLuEUpFKVLMXcgOH9FRZibbUN","8bqynu00xCMLlut8SOlhm9JjIj",2296025,1205,FALSE,"resistance_to_framing_trial","3",1433,"rc2_5","3.0","3.0"
"NhLuEUpFKVLMXcgOH9FRZibbUN","8bqynu00xCMLlut8SOlhm9JjIj",2307964,1206,FALSE,"resistance_to_framing_trial","3",11931,"rc2_6","3.0","3.0"
"NhLuEUpFKVLMXcgOH9FRZibbUN","8bqynu00xCMLlut8SOlhm9JjIj",2310179,1207,FALSE,"resistance_to_framing_trial","3",2209,"rc2_7","3.0","3.0"
"NhLuEUpFKVLMXcgOH9FRZibbUN","8bqynu00xCMLlut8SOlhm9JjIj",2328688,1215,FALSE,"admc_dr_trial","{'dr1': ['E']}",11098,"dr1","0.0","3.0"
"NhLuEUpFKVLMXcgOH9FRZibbUN","8bqynu00xCMLlut8SOlhm9JjIj",2339243,1216,FALSE,"admc_dr_trial","{'dr2': ['E']}",10530,"dr2","0.0","3.0"
"NhLuEUpFKVLMXcgOH9FRZibbUN","8bqynu00xCMLlut8SOlhm9JjIj",2341664,1217,FALSE,"admc_dr_trial","{'dr3': ['E']}",2393,"dr3","0.0","3.0"
"NhLuEUpFKVLMXcgOH9FRZibbUN","8bqynu00xCMLlut8SOlhm9JjIj",2343181,1218,FALSE,"admc_dr_trial","{'dr4': ['D']}",1487,"dr4","0.0","3.0"
"NhLuEUpFKVLMXcgOH9FRZibbUN","8bqynu00xCMLlut8SOlhm9JjIj",2344884,1219,FALSE,"admc_dr_trial","{'dr5': ['D']}",1672,"dr5","0.0","3.0"
"NhLuEUpFKVLMXcgOH9FRZibbUN","8bqynu00xCMLlut8SOlhm9JjIj",2346352,1220,FALSE,"admc_dr_trial","{'dr6': ['C']}",1434,"dr6","0.0","3.0"
"NhLuEUpFKVLMXcgOH9FRZibbUN","8bqynu00xCMLlut8SOlhm9JjIj",2348013,1221,FALSE,"admc_dr_trial","{'dr7': ['D']}",1629,"dr7","0.0","3.0"
"NhLuEUpFKVLMXcgOH9FRZibbUN","8bqynu00xCMLlut8SOlhm9JjIj",2362189,1222,FALSE,"admc_dr_trial","{'dr8': ['C', 'D']}",14141,"dr8","1.0","3.0"
"NhLuEUpFKVLMXcgOH9FRZibbUN","8bqynu00xCMLlut8SOlhm9JjIj",2366273,1223,FALSE,"admc_dr_trial","{'dr9': ['A', 'B', 'C']}",4047,"dr9","1.0","3.0"
"NhLuEUpFKVLMXcgOH9FRZibbUN","8bqynu00xCMLlut8SOlhm9JjIj",2370348,1224,FALSE,"admc_dr_trial","{'dr10': ['C', 'D', 'E']}",4026,"dr10","3.0","3.0"
"roE5s1646kIDOHR2ypn0gY8XIG","28TcpfsssHRGwhYTS43NorZ2aj",1380411,603,FALSE,"resistance_to_framing_trial","6",31076,"rc2_1","6.0","2.0"
"roE5s1646kIDOHR2ypn0gY8XIG","28TcpfsssHRGwhYTS43NorZ2aj",1387351,604,FALSE,"resistance_to_framing_trial","4",6938,"rc2_2","4.0","2.0"
"roE5s1646kIDOHR2ypn0gY8XIG","28TcpfsssHRGwhYTS43NorZ2aj",1395221,605,FALSE,"resistance_to_framing_trial","4",7868,"rc2_3","4.0","2.0"
"roE5s1646kIDOHR2ypn0gY8XIG","28TcpfsssHRGwhYTS43NorZ2aj",1418958,606,FALSE,"resistance_to_framing_trial","1",23735,"rc2_4","1.0","2.0"
"roE5s1646kIDOHR2ypn0gY8XIG","28TcpfsssHRGwhYTS43NorZ2aj",1429428,607,FALSE,"resistance_to_framing_trial","3",10469,"rc2_5","3.0","2.0"
"roE5s1646kIDOHR2ypn0gY8XIG","28TcpfsssHRGwhYTS43NorZ2aj",1451423,608,FALSE,"resistance_to_framing_trial","2",21994,"rc2_6","2.0","2.0"
"roE5s1646kIDOHR2ypn0gY8XIG","28TcpfsssHRGwhYTS43NorZ2aj",1455409,609,FALSE,"resistance_to_framing_trial","3",3984,"rc2_7","3.0","2.0"
"roE5s1646kIDOHR2ypn0gY8XIG","28TcpfsssHRGwhYTS43NorZ2aj",2111165,672,FALSE,"resistance_to_framing_trial","6",11740,"a1_1","6.0","2.0"
"roE5s1646kIDOHR2ypn0gY8XIG","28TcpfsssHRGwhYTS43NorZ2aj",2116171,673,FALSE,"resistance_to_framing_trial","4",5004,"a1_2","4.0","2.0"
"roE5s1646kIDOHR2ypn0gY8XIG","28TcpfsssHRGwhYTS43NorZ2aj",2125925,674,FALSE,"resistance_to_framing_trial","3",9752,"a1_3","3.0","2.0"
"roE5s1646kIDOHR2ypn0gY8XIG","28TcpfsssHRGwhYTS43NorZ2aj",2135458,675,FALSE,"resistance_to_framing_trial","4",9531,"a1_4","4.0","2.0"
"roE5s1646kIDOHR2ypn0gY8XIG","28TcpfsssHRGwhYTS43NorZ2aj",2141754,676,FALSE,"resistance_to_framing_trial","4",6294,"a1_5","4.0","2.0"
"roE5s1646kIDOHR2ypn0gY8XIG","28TcpfsssHRGwhYTS43NorZ2aj",2162410,677,FALSE,"resistance_to_framing_trial","2",20655,"a1_6","2.0","2.0"
"roE5s1646kIDOHR2ypn0gY8XIG","28TcpfsssHRGwhYTS43NorZ2aj",2173581,678,FALSE,"resistance_to_framing_trial","4",11169,"a1_7","4.0","2.0"
"roE5s1646kIDOHR2ypn0gY8XIG","28TcpfsssHRGwhYTS43NorZ2aj",3376910,912,FALSE,"admc_dr_trial","{'dr1': ['D']}",2589,"dr1","0.0","2.0"
"roE5s1646kIDOHR2ypn0gY8XIG","28TcpfsssHRGwhYTS43NorZ2aj",3378789,913,FALSE,"admc_dr_trial","{'dr2': ['D']}",1874,"dr2","1.0","2.0"
"roE5s1646kIDOHR2ypn0gY8XIG","28TcpfsssHRGwhYTS43NorZ2aj",3381167,914,FALSE,"admc_dr_trial","{'dr3': ['C']}",2372,"dr3","1.0","2.0"
"roE5s1646kIDOHR2ypn0gY8XIG","28TcpfsssHRGwhYTS43NorZ2aj",3383752,915,FALSE,"admc_dr_trial","{'dr4': ['B']}",2580,"dr4","0.0","2.0"
"roE5s1646kIDOHR2ypn0gY8XIG","28TcpfsssHRGwhYTS43NorZ2aj",3387163,916,FALSE,"admc_dr_trial","{'dr5': ['A']}",3407,"dr5","1.0","2.0"
"roE5s1646kIDOHR2ypn0gY8XIG","28TcpfsssHRGwhYTS43NorZ2aj",3389555,917,FALSE,"admc_dr_trial","{'dr6': ['E']}",2387,"dr6","1.0","2.0"
"roE5s1646kIDOHR2ypn0gY8XIG","28TcpfsssHRGwhYTS43NorZ2aj",3392017,918,FALSE,"admc_dr_trial","{'dr7': ['D']}",2457,"dr7","0.0","2.0"
"roE5s1646kIDOHR2ypn0gY8XIG","28TcpfsssHRGwhYTS43NorZ2aj",3397207,919,FALSE,"admc_dr_trial","{'dr8': ['C', 'D']}",5184,"dr8","1.0","2.0"
"roE5s1646kIDOHR2ypn0gY8XIG","28TcpfsssHRGwhYTS43NorZ2aj",3406518,920,FALSE,"admc_dr_trial","{'dr9': ['B', 'C', 'E']}",9306,"dr9","1.0","2.0"
"roE5s1646kIDOHR2ypn0gY8XIG","28TcpfsssHRGwhYTS43NorZ2aj",3414437,921,FALSE,"admc_dr_trial","{'dr10': ['A', 'B', 'D']}",7914,"dr10","1.0","2.0"
"OO4yb0INB3A6g0bjsbmN4Pk7cC","5WqNQtdt83r8zmWXUM84lzOcsb",970034,225,FALSE,"admc_rp_a_trial","{'rp_a1': '48', 'rp_a2': '44', 'rp_a3': '41', 'rp_a4': '37', 'rp_a5': '22', 'rp_a6': '16', 'rp_a7': '18', 'rp_a8': '19', 'rp_a9': '23', 'rp_a10': '20'}",18152,"['rp_a1', 'rp_a2', 'rp_a3', 'rp_a4', 'rp_a5', 'rp_a6', 'rp_a7', 'rp_a8', 'rp_a9', 'rp_a10']","['48', '44', '41', '37', '22', '16', '18', '19', '23', '20']","3.0"
"OO4yb0INB3A6g0bjsbmN4Pk7cC","5WqNQtdt83r8zmWXUM84lzOcsb",987372,226,FALSE,"admc_rp_b_trial","{'rp_b1': '21', 'rp_b2': '20', 'rp_b3': '30', 'rp_b4': '29', 'rp_b5': '29', 'rp_b6': '27', 'rp_b7': '25', 'rp_b8': '25', 'rp_b9': '24', 'rp_b10': '25'}",17319,"['rp_b1', 'rp_b2', 'rp_b3', 'rp_b4', 'rp_b5', 'rp_b6', 'rp_b7', 'rp_b8', 'rp_b9', 'rp_b10']","['21', '20', '30', '29', '29', '27', '25', '25', '24', '25']","3.0"
"OO4yb0INB3A6g0bjsbmN4Pk7cC","5WqNQtdt83r8zmWXUM84lzOcsb",993907,233,FALSE,"resistance_to_framing_trial","2",4548,"a2_1","2","3.0"
"OO4yb0INB3A6g0bjsbmN4Pk7cC","5WqNQtdt83r8zmWXUM84lzOcsb",995651,234,FALSE,"resistance_to_framing_trial","3",1736,"a2_2","3","3.0"
"OO4yb0INB3A6g0bjsbmN4Pk7cC","5WqNQtdt83r8zmWXUM84lzOcsb",998093,235,FALSE,"resistance_to_framing_trial","4",2435,"a2_3","4","3.0"
"OO4yb0INB3A6g0bjsbmN4Pk7cC","5WqNQtdt83r8zmWXUM84lzOcsb",999601,236,FALSE,"resistance_to_framing_trial","3",1499,"a2_4","3","3.0"
"OO4yb0INB3A6g0bjsbmN4Pk7cC","5WqNQtdt83r8zmWXUM84lzOcsb",1004138,237,FALSE,"resistance_to_framing_trial","3",4529,"a2_5","3","3.0"
"OO4yb0INB3A6g0bjsbmN4Pk7cC","5WqNQtdt83r8zmWXUM84lzOcsb",1005862,238,FALSE,"resistance_to_framing_trial","4",1711,"a2_6","4","3.0"
"OO4yb0INB3A6g0bjsbmN4Pk7cC","5WqNQtdt83r8zmWXUM84lzOcsb",1007685,239,FALSE,"resistance_to_framing_trial","5",1813,"a2_7","5","3.0"
"OO4yb0INB3A6g0bjsbmN4Pk7cC","5WqNQtdt83r8zmWXUM84lzOcsb",1700110,1205,FALSE,"resistance_to_framing_trial","3",5720,"rc1_1","3","3.0"
"OO4yb0INB3A6g0bjsbmN4Pk7cC","5WqNQtdt83r8zmWXUM84lzOcsb",1704206,1206,FALSE,"resistance_to_framing_trial","3",4089,"rc1_2","3","3.0"
"OO4yb0INB3A6g0bjsbmN4Pk7cC","5WqNQtdt83r8zmWXUM84lzOcsb",1706415,1207,FALSE,"resistance_to_framing_trial","4",2197,"rc1_3","4","3.0"
"OO4yb0INB3A6g0bjsbmN4Pk7cC","5WqNQtdt83r8zmWXUM84lzOcsb",1708517,1208,FALSE,"resistance_to_framing_trial","4",2094,"rc1_4","4","3.0"
"OO4yb0INB3A6g0bjsbmN4Pk7cC","5WqNQtdt83r8zmWXUM84lzOcsb",1710462,1209,FALSE,"resistance_to_framing_trial","4",1937,"rc1_5","4","3.0"
"OO4yb0INB3A6g0bjsbmN4Pk7cC","5WqNQtdt83r8zmWXUM84lzOcsb",1712507,1210,FALSE,"resistance_to_framing_trial","4",2034,"rc1_6","4","3.0"
"OO4yb0INB3A6g0bjsbmN4Pk7cC","5WqNQtdt83r8zmWXUM84lzOcsb",1715880,1211,FALSE,"resistance_to_framing_trial","4",3362,"rc1_7","4","3.0"
"tLSjGm6Dqri4nsVHHnkVL8G3V4","VYycXONC2I51jJfJmnalaU8NU2",52285,13,FALSE,"admc_dr_trial","{'dr1': ['C']}",15711,"dr1","1.0","2.0"
"tLSjGm6Dqri4nsVHHnkVL8G3V4","VYycXONC2I51jJfJmnalaU8NU2",73037,14,FALSE,"admc_dr_trial","{'dr2': ['D']}",20741,"dr2","1.0","2.0"
"tLSjGm6Dqri4nsVHHnkVL8G3V4","VYycXONC2I51jJfJmnalaU8NU2",86687,15,FALSE,"admc_dr_trial","{'dr3': ['C']}",13647,"dr3","1.0","2.0"
"tLSjGm6Dqri4nsVHHnkVL8G3V4","VYycXONC2I51jJfJmnalaU8NU2",93931,16,FALSE,"admc_dr_trial","{'dr4': ['None']}",7241,"dr4","1.0","2.0"
"tLSjGm6Dqri4nsVHHnkVL8G3V4","VYycXONC2I51jJfJmnalaU8NU2",124684,17,FALSE,"admc_dr_trial","{'dr5': ['C']}",30749,"dr5","0.0","2.0"
"tLSjGm6Dqri4nsVHHnkVL8G3V4","VYycXONC2I51jJfJmnalaU8NU2",149041,18,FALSE,"admc_dr_trial","{'dr6': ['E']}",24354,"dr6","1.0","2.0"
"tLSjGm6Dqri4nsVHHnkVL8G3V4","VYycXONC2I51jJfJmnalaU8NU2",166948,19,FALSE,"admc_dr_trial","{'dr7': ['E']}",17903,"dr7","1.0","2.0"
"tLSjGm6Dqri4nsVHHnkVL8G3V4","VYycXONC2I51jJfJmnalaU8NU2",190740,20,FALSE,"admc_dr_trial","{'dr8': ['A', 'C']}",23789,"dr8","2.0","2.0"
"tLSjGm6Dqri4nsVHHnkVL8G3V4","VYycXONC2I51jJfJmnalaU8NU2",236744,21,TRUE,"admc_dr_trial","{'dr9': ['D']}",46000,"dr9","1.0","2.0"
"tLSjGm6Dqri4nsVHHnkVL8G3V4","VYycXONC2I51jJfJmnalaU8NU2",269646,22,FALSE,"admc_dr_trial","{'dr10': ['B', 'D', 'E']}",32898,"dr10","2.0","2.0"
"tLSjGm6Dqri4nsVHHnkVL8G3V4","VYycXONC2I51jJfJmnalaU8NU2",431979,50,FALSE,"resistance_to_framing_trial","6",3993,"a1_1","6.0","2.0"
"tLSjGm6Dqri4nsVHHnkVL8G3V4","VYycXONC2I51jJfJmnalaU8NU2",434061,51,FALSE,"resistance_to_framing_trial","6",2081,"a1_2","6.0","2.0"
"tLSjGm6Dqri4nsVHHnkVL8G3V4","VYycXONC2I51jJfJmnalaU8NU2",435797,52,FALSE,"resistance_to_framing_trial","6",1735,"a1_3","6.0","2.0"
"tLSjGm6Dqri4nsVHHnkVL8G3V4","VYycXONC2I51jJfJmnalaU8NU2",437045,53,FALSE,"resistance_to_framing_trial","3",1248,"a1_4","3.0","2.0"
"tLSjGm6Dqri4nsVHHnkVL8G3V4","VYycXONC2I51jJfJmnalaU8NU2",439949,54,FALSE,"resistance_to_framing_trial","5",2902,"a1_5","5.0","2.0"
"tLSjGm6Dqri4nsVHHnkVL8G3V4","VYycXONC2I51jJfJmnalaU8NU2",441997,55,FALSE,"resistance_to_framing_trial","5",2048,"a1_6","5.0","2.0"
"tLSjGm6Dqri4nsVHHnkVL8G3V4","VYycXONC2I51jJfJmnalaU8NU2",449044,56,FALSE,"resistance_to_framing_trial","4",7046,"a1_7","4.0","2.0"
"tLSjGm6Dqri4nsVHHnkVL8G3V4","VYycXONC2I51jJfJmnalaU8NU2",461376,63,FALSE,"resistance_to_framing_trial","4",11608,"rc2_1","4.0","2.0"
"tLSjGm6Dqri4nsVHHnkVL8G3V4","VYycXONC2I51jJfJmnalaU8NU2",466624,64,FALSE,"resistance_to_framing_trial","2",5247,"rc2_2","2.0","2.0"
"tLSjGm6Dqri4nsVHHnkVL8G3V4","VYycXONC2I51jJfJmnalaU8NU2",473250,65,FALSE,"resistance_to_framing_trial","5",6625,"rc2_3","5.0","2.0"
"tLSjGm6Dqri4nsVHHnkVL8G3V4","VYycXONC2I51jJfJmnalaU8NU2",481617,66,FALSE,"resistance_to_framing_trial","5",8367,"rc2_4","5.0","2.0"
"tLSjGm6Dqri4nsVHHnkVL8G3V4","VYycXONC2I51jJfJmnalaU8NU2",485698,67,FALSE,"resistance_to_framing_trial","2",4080,"rc2_5","2.0","2.0"
"tLSjGm6Dqri4nsVHHnkVL8G3V4","VYycXONC2I51jJfJmnalaU8NU2",490628,68,FALSE,"resistance_to_framing_trial","2",4929,"rc2_6","2.0","2.0"
"tLSjGm6Dqri4nsVHHnkVL8G3V4","VYycXONC2I51jJfJmnalaU8NU2",494645,69,FALSE,"resistance_to_framing_trial","5",4016,"rc2_7","5.0","2.0"
"J7ihM1rNvpFkv9kc6OmTQXHCLx","WZc0ie5zGBgaKNEwJkui35nRCV",31115226,220,FALSE,"admc_rp_a_trial","{'rp_a1': '60', 'rp_a2': '51', 'rp_a3': '43', 'rp_a4': '5', 'rp_a5': '10', 'rp_a6': '12', 'rp_a7': '11', 'rp_a8': '16', 'rp_a9': '21', 'rp_a10': '21'}",18920,"['rp_a1', 'rp_a2', 'rp_a3', 'rp_a4', 'rp_a5', 'rp_a6', 'rp_a7', 'rp_a8', 'rp_a9', 'rp_a10']","['60', '51', '43', '5', '10', '12', '11', '16', '21', '21']","3.0"
"J7ihM1rNvpFkv9kc6OmTQXHCLx","WZc0ie5zGBgaKNEwJkui35nRCV",31128745,221,FALSE,"admc_rp_b_trial","{'rp_b1': '13', 'rp_b2': '13', 'rp_b3': '11', 'rp_b4': '14', 'rp_b5': '14', 'rp_b6': '13', 'rp_b7': '9', 'rp_b8': '10', 'rp_b9': '10', 'rp_b10': '15'}",13517,"['rp_b1', 'rp_b2', 'rp_b3', 'rp_b4', 'rp_b5', 'rp_b6', 'rp_b7', 'rp_b8', 'rp_b9', 'rp_b10']","['13', '13', '11', '14', '14', '13', '9', '10', '10', '15']","3.0"
"J7ihM1rNvpFkv9kc6OmTQXHCLx","WZc0ie5zGBgaKNEwJkui35nRCV",31525760,804,FALSE,"resistance_to_framing_trial","3",15631,"a2_1","3","3.0"
"J7ihM1rNvpFkv9kc6OmTQXHCLx","WZc0ie5zGBgaKNEwJkui35nRCV",31536367,805,FALSE,"resistance_to_framing_trial","5",10606,"a2_2","5","3.0"
"J7ihM1rNvpFkv9kc6OmTQXHCLx","WZc0ie5zGBgaKNEwJkui35nRCV",31537790,806,FALSE,"resistance_to_framing_trial","5",1421,"a2_3","5","3.0"
"J7ihM1rNvpFkv9kc6OmTQXHCLx","WZc0ie5zGBgaKNEwJkui35nRCV",31539745,807,FALSE,"resistance_to_framing_trial","5",1954,"a2_4","5","3.0"
"J7ihM1rNvpFkv9kc6OmTQXHCLx","WZc0ie5zGBgaKNEwJkui35nRCV",31541359,808,FALSE,"resistance_to_framing_trial","3",1612,"a2_5","3","3.0"
"J7ihM1rNvpFkv9kc6OmTQXHCLx","WZc0ie5zGBgaKNEwJkui35nRCV",31543262,809,FALSE,"resistance_to_framing_trial","4",1901,"a2_6","4","3.0"
"J7ihM1rNvpFkv9kc6OmTQXHCLx","WZc0ie5zGBgaKNEwJkui35nRCV",31544943,810,FALSE,"resistance_to_framing_trial","2",1680,"a2_7","2","3.0"
"J7ihM1rNvpFkv9kc6OmTQXHCLx","WZc0ie5zGBgaKNEwJkui35nRCV",64046658,1015,FALSE,"resistance_to_framing_trial","4",1500,"rc1_1","4","3.0"
"J7ihM1rNvpFkv9kc6OmTQXHCLx","WZc0ie5zGBgaKNEwJkui35nRCV",64047689,1016,FALSE,"resistance_to_framing_trial","3",1029,"rc1_2","3","3.0"
"J7ihM1rNvpFkv9kc6OmTQXHCLx","WZc0ie5zGBgaKNEwJkui35nRCV",64048959,1017,FALSE,"resistance_to_framing_trial","2",1268,"rc1_3","2","3.0"
"J7ihM1rNvpFkv9kc6OmTQXHCLx","WZc0ie5zGBgaKNEwJkui35nRCV",64050248,1018,FALSE,"resistance_to_framing_trial","5",1286,"rc1_4","5","3.0"
"J7ihM1rNvpFkv9kc6OmTQXHCLx","WZc0ie5zGBgaKNEwJkui35nRCV",64052072,1019,FALSE,"resistance_to_framing_trial","5",1821,"rc1_5","5","3.0"
"J7ihM1rNvpFkv9kc6OmTQXHCLx","WZc0ie5zGBgaKNEwJkui35nRCV",64064851,1020,FALSE,"resistance_to_framing_trial","2",12777,"rc1_6","2","3.0"
"J7ihM1rNvpFkv9kc6OmTQXHCLx","WZc0ie5zGBgaKNEwJkui35nRCV",64065946,1021,FALSE,"resistance_to_framing_trial","2",1093,"rc1_7","2","3.0"
"mlurIW2qwwJJGZSC2yeDqFlPH2","zSb6BFgbq26jSmsAkRmwpG7x5y",710318,943,FALSE,"resistance_to_framing_trial","6",3502,"a2_1","6","2.0"
"mlurIW2qwwJJGZSC2yeDqFlPH2","zSb6BFgbq26jSmsAkRmwpG7x5y",713469,944,FALSE,"resistance_to_framing_trial","6",3150,"a2_2","6","2.0"
"mlurIW2qwwJJGZSC2yeDqFlPH2","zSb6BFgbq26jSmsAkRmwpG7x5y",715501,945,FALSE,"resistance_to_framing_trial","6",2032,"a2_3","6","2.0"
"mlurIW2qwwJJGZSC2yeDqFlPH2","zSb6BFgbq26jSmsAkRmwpG7x5y",717853,946,FALSE,"resistance_to_framing_trial","6",2350,"a2_4","6","2.0"
"mlurIW2qwwJJGZSC2yeDqFlPH2","zSb6BFgbq26jSmsAkRmwpG7x5y",719933,947,FALSE,"resistance_to_framing_trial","6",2080,"a2_5","6","2.0"
"mlurIW2qwwJJGZSC2yeDqFlPH2","zSb6BFgbq26jSmsAkRmwpG7x5y",722149,948,FALSE,"resistance_to_framing_trial","6",2215,"a2_6","6","2.0"
"mlurIW2qwwJJGZSC2yeDqFlPH2","zSb6BFgbq26jSmsAkRmwpG7x5y",725517,949,FALSE,"resistance_to_framing_trial","6",3367,"a2_7","6","2.0"
"mlurIW2qwwJJGZSC2yeDqFlPH2","zSb6BFgbq26jSmsAkRmwpG7x5y",744486,956,FALSE,"admc_rp_a_trial","{'rp_a1': '98', 'rp_a2': '99', 'rp_a3': '98', 'rp_a4': '97', 'rp_a5': '97', 'rp_a6': '99', 'rp_a7': '99', 'rp_a8': '99', 'rp_a9': '97', 'rp_a10': '100'}",13158,"['rp_a1', 'rp_a2', 'rp_a3', 'rp_a4', 'rp_a5', 'rp_a6', 'rp_a7', 'rp_a8', 'rp_a9', 'rp_a10']","['98', '99', '98', '97', '97', '99', '99', '99', '97', '100']","2.0"
"mlurIW2qwwJJGZSC2yeDqFlPH2","zSb6BFgbq26jSmsAkRmwpG7x5y",756950,957,FALSE,"admc_rp_b_trial","{'rp_b1': '85', 'rp_b2': '87', 'rp_b3': '86', 'rp_b4': '84', 'rp_b5': '83', 'rp_b6': '86', 'rp_b7': '88', 'rp_b8': '88', 'rp_b9': '90', 'rp_b10': '90'}",12462,"['rp_b1', 'rp_b2', 'rp_b3', 'rp_b4', 'rp_b5', 'rp_b6', 'rp_b7', 'rp_b8', 'rp_b9', 'rp_b10']","['85', '87', '86', '84', '83', '86', '88', '88', '90', '90']","2.0"
"mlurIW2qwwJJGZSC2yeDqFlPH2","zSb6BFgbq26jSmsAkRmwpG7x5y",1748068,1214,FALSE,"resistance_to_framing_trial","4",2062,"rc1_1","4","2.0"
"mlurIW2qwwJJGZSC2yeDqFlPH2","zSb6BFgbq26jSmsAkRmwpG7x5y",1750221,1215,FALSE,"resistance_to_framing_trial","4",2152,"rc1_2","4","2.0"
"mlurIW2qwwJJGZSC2yeDqFlPH2","zSb6BFgbq26jSmsAkRmwpG7x5y",1751533,1216,FALSE,"resistance_to_framing_trial","4",1311,"rc1_3","4","2.0"
"mlurIW2qwwJJGZSC2yeDqFlPH2","zSb6BFgbq26jSmsAkRmwpG7x5y",1753325,1217,FALSE,"resistance_to_framing_trial","4",1791,"rc1_4","4","2.0"
"mlurIW2qwwJJGZSC2yeDqFlPH2","zSb6BFgbq26jSmsAkRmwpG7x5y",1755925,1218,FALSE,"resistance_to_framing_trial","4",2599,"rc1_5","4","2.0"
"mlurIW2qwwJJGZSC2yeDqFlPH2","zSb6BFgbq26jSmsAkRmwpG7x5y",1757861,1219,FALSE,"resistance_to_framing_trial","4",1935,"rc1_6","4","2.0"
"mlurIW2qwwJJGZSC2yeDqFlPH2","zSb6BFgbq26jSmsAkRmwpG7x5y",1759733,1220,FALSE,"resistance_to_framing_trial","4",1871,"rc1_7","4","2.0"
"W6lW7tpcdPnwidSMJyh0KrZtZ9","FC4UOASx57sEFVAZBJFSxdRL5X",637114,163,FALSE,"resistance_to_framing_trial","4",1780,"a1_1","4","3.0"
"W6lW7tpcdPnwidSMJyh0KrZtZ9","FC4UOASx57sEFVAZBJFSxdRL5X",638474,164,FALSE,"resistance_to_framing_trial","4",1357,"a1_2","4","3.0"
"W6lW7tpcdPnwidSMJyh0KrZtZ9","FC4UOASx57sEFVAZBJFSxdRL5X",640162,165,FALSE,"resistance_to_framing_trial","4",1685,"a1_3","4","3.0"
"W6lW7tpcdPnwidSMJyh0KrZtZ9","FC4UOASx57sEFVAZBJFSxdRL5X",641633,166,FALSE,"resistance_to_framing_trial","3",1468,"a1_4","3","3.0"
"W6lW7tpcdPnwidSMJyh0KrZtZ9","FC4UOASx57sEFVAZBJFSxdRL5X",644649,167,FALSE,"resistance_to_framing_trial","3",3013,"a1_5","3","3.0"
"W6lW7tpcdPnwidSMJyh0KrZtZ9","FC4UOASx57sEFVAZBJFSxdRL5X",646305,168,FALSE,"resistance_to_framing_trial","4",1653,"a1_6","4","3.0"
"W6lW7tpcdPnwidSMJyh0KrZtZ9","FC4UOASx57sEFVAZBJFSxdRL5X",648161,169,FALSE,"resistance_to_framing_trial","4",1853,"a1_7","4","3.0"
"W6lW7tpcdPnwidSMJyh0KrZtZ9","FC4UOASx57sEFVAZBJFSxdRL5X",1101143,314,FALSE,"resistance_to_framing_trial","3",1443,"rc2_1","3","3.0"
"W6lW7tpcdPnwidSMJyh0KrZtZ9","FC4UOASx57sEFVAZBJFSxdRL5X",1105127,315,FALSE,"resistance_to_framing_trial","4",3981,"rc2_2","4","3.0"
"W6lW7tpcdPnwidSMJyh0KrZtZ9","FC4UOASx57sEFVAZBJFSxdRL5X",1108230,316,FALSE,"resistance_to_framing_trial","4",3099,"rc2_3","4","3.0"
"W6lW7tpcdPnwidSMJyh0KrZtZ9","FC4UOASx57sEFVAZBJFSxdRL5X",1110358,317,FALSE,"resistance_to_framing_trial","4",2125,"rc2_4","4","3.0"
"W6lW7tpcdPnwidSMJyh0KrZtZ9","FC4UOASx57sEFVAZBJFSxdRL5X",1111862,318,FALSE,"resistance_to_framing_trial","4",1501,"rc2_5","4","3.0"
"W6lW7tpcdPnwidSMJyh0KrZtZ9","FC4UOASx57sEFVAZBJFSxdRL5X",1113149,319,FALSE,"resistance_to_framing_trial","4",1284,"rc2_6","4","3.0"
"W6lW7tpcdPnwidSMJyh0KrZtZ9","FC4UOASx57sEFVAZBJFSxdRL5X",1115502,320,FALSE,"resistance_to_framing_trial","3",2349,"rc2_7","3","3.0"
"W6lW7tpcdPnwidSMJyh0KrZtZ9","FC4UOASx57sEFVAZBJFSxdRL5X",1844866,1363,FALSE,"admc_dr_trial","{'dr1': ['E']}",2690,"dr1","0","3.0"
"W6lW7tpcdPnwidSMJyh0KrZtZ9","FC4UOASx57sEFVAZBJFSxdRL5X",1847849,1364,FALSE,"admc_dr_trial","{'dr2': ['D']}",2969,"dr2","1","3.0"
"W6lW7tpcdPnwidSMJyh0KrZtZ9","FC4UOASx57sEFVAZBJFSxdRL5X",1850433,1365,FALSE,"admc_dr_trial","{'dr3': ['D']}",2570,"dr3","0","3.0"
"W6lW7tpcdPnwidSMJyh0KrZtZ9","FC4UOASx57sEFVAZBJFSxdRL5X",1852240,1366,FALSE,"admc_dr_trial","{'dr4': ['D']}",1792,"dr4","0","3.0"
"W6lW7tpcdPnwidSMJyh0KrZtZ9","FC4UOASx57sEFVAZBJFSxdRL5X",1853944,1367,FALSE,"admc_dr_trial","{'dr5': ['D']}",1690,"dr5","0","3.0"
"W6lW7tpcdPnwidSMJyh0KrZtZ9","FC4UOASx57sEFVAZBJFSxdRL5X",1855543,1368,FALSE,"admc_dr_trial","{'dr6': ['D']}",1583,"dr6","0","3.0"
"W6lW7tpcdPnwidSMJyh0KrZtZ9","FC4UOASx57sEFVAZBJFSxdRL5X",1857487,1369,FALSE,"admc_dr_trial","{'dr7': ['D']}",1929,"dr7","0","3.0"
"W6lW7tpcdPnwidSMJyh0KrZtZ9","FC4UOASx57sEFVAZBJFSxdRL5X",1861575,1370,FALSE,"admc_dr_trial","{'dr8': ['D', 'E']}",4073,"dr8","0","3.0"
"W6lW7tpcdPnwidSMJyh0KrZtZ9","FC4UOASx57sEFVAZBJFSxdRL5X",1866998,1371,FALSE,"admc_dr_trial","{'dr9': ['D', 'E', 'None']}",5405,"dr9","2","3.0"
"W6lW7tpcdPnwidSMJyh0KrZtZ9","FC4UOASx57sEFVAZBJFSxdRL5X",1878284,1372,FALSE,"admc_dr_trial","{'dr10': ['C', 'D', 'E']}",11270,"dr10","3","3.0"
"Ox2JDobTVCybEB6T15i8Cf82Z1","6tVhik6yMDBEBQwVOgIqfCrq0H",1425996,521,FALSE,"admc_dr_trial","{'dr1': ['D']}",4224,"dr1","0.0","2.0"
"Ox2JDobTVCybEB6T15i8Cf82Z1","6tVhik6yMDBEBQwVOgIqfCrq0H",1427740,522,FALSE,"admc_dr_trial","{'dr2': ['C']}",1726,"dr2","0.0","2.0"
"Ox2JDobTVCybEB6T15i8Cf82Z1","6tVhik6yMDBEBQwVOgIqfCrq0H",1429403,523,FALSE,"admc_dr_trial","{'dr3': ['D']}",1645,"dr3","0.0","2.0"
"Ox2JDobTVCybEB6T15i8Cf82Z1","6tVhik6yMDBEBQwVOgIqfCrq0H",1431533,524,FALSE,"admc_dr_trial","{'dr4': ['C']}",2110,"dr4","0.0","2.0"
"Ox2JDobTVCybEB6T15i8Cf82Z1","6tVhik6yMDBEBQwVOgIqfCrq0H",1433095,525,FALSE,"admc_dr_trial","{'dr5': ['A']}",1547,"dr5","1.0","2.0"
"Ox2JDobTVCybEB6T15i8Cf82Z1","6tVhik6yMDBEBQwVOgIqfCrq0H",1435657,526,FALSE,"admc_dr_trial","{'dr6': ['D']}",2547,"dr6","0.0","2.0"
"Ox2JDobTVCybEB6T15i8Cf82Z1","6tVhik6yMDBEBQwVOgIqfCrq0H",1437537,527,FALSE,"admc_dr_trial","{'dr7': ['B']}",1864,"dr7","0.0","2.0"
"Ox2JDobTVCybEB6T15i8Cf82Z1","6tVhik6yMDBEBQwVOgIqfCrq0H",1443209,528,FALSE,"admc_dr_trial","{'dr8': ['B', 'D']}",5657,"dr8","0.0","2.0"
"Ox2JDobTVCybEB6T15i8Cf82Z1","6tVhik6yMDBEBQwVOgIqfCrq0H",1448280,529,FALSE,"admc_dr_trial","{'dr9': ['B', 'D', 'E']}",5057,"dr9","2.0","2.0"
"Ox2JDobTVCybEB6T15i8Cf82Z1","6tVhik6yMDBEBQwVOgIqfCrq0H",1451259,530,FALSE,"admc_dr_trial","{'dr10': ['A', 'D', 'E']}",2953,"dr10","2.0","2.0"
"Ox2JDobTVCybEB6T15i8Cf82Z1","6tVhik6yMDBEBQwVOgIqfCrq0H",1980319,1119,FALSE,"resistance_to_framing_trial","5",48758,"rc2_1","5.0","2.0"
"Ox2JDobTVCybEB6T15i8Cf82Z1","6tVhik6yMDBEBQwVOgIqfCrq0H",1981408,1120,FALSE,"resistance_to_framing_trial","5",1084,"rc2_2","5.0","2.0"
"Ox2JDobTVCybEB6T15i8Cf82Z1","6tVhik6yMDBEBQwVOgIqfCrq0H",1982347,1121,FALSE,"resistance_to_framing_trial","5",935,"rc2_3","5.0","2.0"
"Ox2JDobTVCybEB6T15i8Cf82Z1","6tVhik6yMDBEBQwVOgIqfCrq0H",1983180,1122,FALSE,"resistance_to_framing_trial","4",829,"rc2_4","4.0","2.0"
"Ox2JDobTVCybEB6T15i8Cf82Z1","6tVhik6yMDBEBQwVOgIqfCrq0H",1984011,1123,FALSE,"resistance_to_framing_trial","3",827,"rc2_5","3.0","2.0"
"Ox2JDobTVCybEB6T15i8Cf82Z1","6tVhik6yMDBEBQwVOgIqfCrq0H",1984809,1124,FALSE,"resistance_to_framing_trial","4",794,"rc2_6","4.0","2.0"
"Ox2JDobTVCybEB6T15i8Cf82Z1","6tVhik6yMDBEBQwVOgIqfCrq0H",1985674,1125,FALSE,"resistance_to_framing_trial","4",862,"rc2_7","4.0","2.0"
"Ox2JDobTVCybEB6T15i8Cf82Z1","6tVhik6yMDBEBQwVOgIqfCrq0H",2424534,1211,FALSE,"resistance_to_framing_trial","4",1655,"a1_1","4.0","2.0"
"Ox2JDobTVCybEB6T15i8Cf82Z1","6tVhik6yMDBEBQwVOgIqfCrq0H",2425583,1212,FALSE,"resistance_to_framing_trial","4",1044,"a1_2","4.0","2.0"
"Ox2JDobTVCybEB6T15i8Cf82Z1","6tVhik6yMDBEBQwVOgIqfCrq0H",2426498,1213,FALSE,"resistance_to_framing_trial","4",910,"a1_3","4.0","2.0"
"Ox2JDobTVCybEB6T15i8Cf82Z1","6tVhik6yMDBEBQwVOgIqfCrq0H",2427394,1214,FALSE,"resistance_to_framing_trial","4",893,"a1_4","4.0","2.0"
"Ox2JDobTVCybEB6T15i8Cf82Z1","6tVhik6yMDBEBQwVOgIqfCrq0H",2428909,1215,FALSE,"resistance_to_framing_trial","5",1511,"a1_5","5.0","2.0"
"Ox2JDobTVCybEB6T15i8Cf82Z1","6tVhik6yMDBEBQwVOgIqfCrq0H",2430722,1216,FALSE,"resistance_to_framing_trial","4",1809,"a1_6","4.0","2.0"
"Ox2JDobTVCybEB6T15i8Cf82Z1","6tVhik6yMDBEBQwVOgIqfCrq0H",2431743,1217,FALSE,"resistance_to_framing_trial","4",1017,"a1_7","4.0","2.0"
"WytiXkcgqj0AfawQJ8D3Yqmxec","hoSaCB1gZ1N8KznRPHsEihlGXG",589470,141,FALSE,"admc_rp_a_trial","{'rp_a1': '51', 'rp_a2': '72', 'rp_a3': '11', 'rp_a4': '10', 'rp_a5': '38', 'rp_a6': '1', 'rp_a7': '11', 'rp_a8': '2', 'rp_a9': '99', 'rp_a10': '83'}",133221,"['rp_a1', 'rp_a2', 'rp_a3', 'rp_a4', 'rp_a5', 'rp_a6', 'rp_a7', 'rp_a8', 'rp_a9', 'rp_a10']","['51', '72', '11', '10', '38', '1', '11', '2', '99', '83']","3.0"
"WytiXkcgqj0AfawQJ8D3Yqmxec","hoSaCB1gZ1N8KznRPHsEihlGXG",714850,142,FALSE,"admc_rp_b_trial","{'rp_b1': '46', 'rp_b2': '91', 'rp_b3': '12', 'rp_b4': '7', 'rp_b5': '2', 'rp_b6': '0', 'rp_b7': '0', 'rp_b8': '92', 'rp_b9': '100', 'rp_b10': '11'}",125373,"['rp_b1', 'rp_b2', 'rp_b3', 'rp_b4', 'rp_b5', 'rp_b6', 'rp_b7', 'rp_b8', 'rp_b9', 'rp_b10']","['46', '91', '12', '7', '2', '0', '0', '92', '100', '11']","3.0"
"WytiXkcgqj0AfawQJ8D3Yqmxec","hoSaCB1gZ1N8KznRPHsEihlGXG",1606723,349,FALSE,"resistance_to_framing_trial","6",17691,"rc1_1","6","3.0"
"WytiXkcgqj0AfawQJ8D3Yqmxec","hoSaCB1gZ1N8KznRPHsEihlGXG",1624487,350,FALSE,"resistance_to_framing_trial","1",17760,"rc1_2","1","3.0"
"WytiXkcgqj0AfawQJ8D3Yqmxec","hoSaCB1gZ1N8KznRPHsEihlGXG",1634450,351,FALSE,"resistance_to_framing_trial","1",9959,"rc1_3","1","3.0"
"WytiXkcgqj0AfawQJ8D3Yqmxec","hoSaCB1gZ1N8KznRPHsEihlGXG",1641019,352,FALSE,"resistance_to_framing_trial","1",6566,"rc1_4","1","3.0"
"WytiXkcgqj0AfawQJ8D3Yqmxec","hoSaCB1gZ1N8KznRPHsEihlGXG",1661113,353,FALSE,"resistance_to_framing_trial","5",20090,"rc1_5","5","3.0"
"WytiXkcgqj0AfawQJ8D3Yqmxec","hoSaCB1gZ1N8KznRPHsEihlGXG",1678244,354,FALSE,"resistance_to_framing_trial","1",17128,"rc1_6","1","3.0"
"WytiXkcgqj0AfawQJ8D3Yqmxec","hoSaCB1gZ1N8KznRPHsEihlGXG",1692251,355,FALSE,"resistance_to_framing_trial","6",14003,"rc1_7","6","3.0"
"WytiXkcgqj0AfawQJ8D3Yqmxec","hoSaCB1gZ1N8KznRPHsEihlGXG",2478623,739,FALSE,"resistance_to_framing_trial","1",8155,"a2_1","1","3.0"
"WytiXkcgqj0AfawQJ8D3Yqmxec","hoSaCB1gZ1N8KznRPHsEihlGXG",2483979,740,FALSE,"resistance_to_framing_trial","1",5352,"a2_2","1","3.0"
"WytiXkcgqj0AfawQJ8D3Yqmxec","hoSaCB1gZ1N8KznRPHsEihlGXG",2486208,741,FALSE,"resistance_to_framing_trial","3",2225,"a2_3","3","3.0"
"WytiXkcgqj0AfawQJ8D3Yqmxec","hoSaCB1gZ1N8KznRPHsEihlGXG",2487671,742,FALSE,"resistance_to_framing_trial","3",1460,"a2_4","3","3.0"
"WytiXkcgqj0AfawQJ8D3Yqmxec","hoSaCB1gZ1N8KznRPHsEihlGXG",2488704,743,FALSE,"resistance_to_framing_trial","3",1028,"a2_5","3","3.0"
"WytiXkcgqj0AfawQJ8D3Yqmxec","hoSaCB1gZ1N8KznRPHsEihlGXG",2489570,744,FALSE,"resistance_to_framing_trial","3",862,"a2_6","3","3.0"
"WytiXkcgqj0AfawQJ8D3Yqmxec","hoSaCB1gZ1N8KznRPHsEihlGXG",2490898,745,FALSE,"resistance_to_framing_trial","3",1322,"a2_7","3","3.0"
"WiMJRTZtpieHRm3ClAWipoHr0C","SGb3o2ONPK215NplFlfdAm7wub",88420,14,FALSE,"admc_dr_trial","{'dr1': ['B']}",29280,"dr1","0.0","2.0"
"WiMJRTZtpieHRm3ClAWipoHr0C","SGb3o2ONPK215NplFlfdAm7wub",112816,15,FALSE,"admc_dr_trial","{'dr2': ['B']}",24393,"dr2","0.0","2.0"
"WiMJRTZtpieHRm3ClAWipoHr0C","SGb3o2ONPK215NplFlfdAm7wub",133846,16,FALSE,"admc_dr_trial","{'dr3': ['D']}",21027,"dr3","0.0","2.0"
"WiMJRTZtpieHRm3ClAWipoHr0C","SGb3o2ONPK215NplFlfdAm7wub",145049,17,FALSE,"admc_dr_trial","{'dr4': ['C']}",11201,"dr4","0.0","2.0"
"WiMJRTZtpieHRm3ClAWipoHr0C","SGb3o2ONPK215NplFlfdAm7wub",170797,18,FALSE,"admc_dr_trial","{'dr5': ['B']}",25746,"dr5","0.0","2.0"
"WiMJRTZtpieHRm3ClAWipoHr0C","SGb3o2ONPK215NplFlfdAm7wub",197323,19,FALSE,"admc_dr_trial","{'dr6': ['E']}",26523,"dr6","1.0","2.0"
"WiMJRTZtpieHRm3ClAWipoHr0C","SGb3o2ONPK215NplFlfdAm7wub",241655,20,FALSE,"admc_dr_trial","{'dr7': ['C']}",44330,"dr7","0.0","2.0"
"WiMJRTZtpieHRm3ClAWipoHr0C","SGb3o2ONPK215NplFlfdAm7wub",287658,21,TRUE,"admc_dr_trial","{'dr8': []}",46000,"dr8","0.0","2.0"
"WiMJRTZtpieHRm3ClAWipoHr0C","SGb3o2ONPK215NplFlfdAm7wub",324229,22,FALSE,"admc_dr_trial","{'dr9': ['A', 'B', 'D']}",36569,"dr9","2.0","2.0"
"WiMJRTZtpieHRm3ClAWipoHr0C","SGb3o2ONPK215NplFlfdAm7wub",349739,23,FALSE,"admc_dr_trial","{'dr10': ['A', 'C', 'D']}",25508,"dr10","2.0","2.0"
"WiMJRTZtpieHRm3ClAWipoHr0C","SGb3o2ONPK215NplFlfdAm7wub",381131,30,FALSE,"resistance_to_framing_trial","1",29681,"a1_1","1.0","2.0"
"WiMJRTZtpieHRm3ClAWipoHr0C","SGb3o2ONPK215NplFlfdAm7wub",403152,31,FALSE,"resistance_to_framing_trial","2",22021,"a1_2","2.0","2.0"
"WiMJRTZtpieHRm3ClAWipoHr0C","SGb3o2ONPK215NplFlfdAm7wub",422422,32,FALSE,"resistance_to_framing_trial","3",19269,"a1_3","3.0","2.0"
"WiMJRTZtpieHRm3ClAWipoHr0C","SGb3o2ONPK215NplFlfdAm7wub",467675,33,FALSE,"resistance_to_framing_trial","3",45253,"a1_4","3.0","2.0"
"WiMJRTZtpieHRm3ClAWipoHr0C","SGb3o2ONPK215NplFlfdAm7wub",484627,34,FALSE,"resistance_to_framing_trial","4",16951,"a1_5","4.0","2.0"
"WiMJRTZtpieHRm3ClAWipoHr0C","SGb3o2ONPK215NplFlfdAm7wub",496972,35,FALSE,"resistance_to_framing_trial","5",12344,"a1_6","5.0","2.0"
"WiMJRTZtpieHRm3ClAWipoHr0C","SGb3o2ONPK215NplFlfdAm7wub",513719,36,FALSE,"resistance_to_framing_trial","2",16747,"a1_7","2.0","2.0"
"WiMJRTZtpieHRm3ClAWipoHr0C","SGb3o2ONPK215NplFlfdAm7wub",1244739,115,FALSE,"resistance_to_framing_trial","6",15001,"rc2_1","6.0","2.0"
"WiMJRTZtpieHRm3ClAWipoHr0C","SGb3o2ONPK215NplFlfdAm7wub",1261372,116,FALSE,"resistance_to_framing_trial","5",16633,"rc2_2","5.0","2.0"
"WiMJRTZtpieHRm3ClAWipoHr0C","SGb3o2ONPK215NplFlfdAm7wub",1276105,117,FALSE,"resistance_to_framing_trial","5",14732,"rc2_3","5.0","2.0"
"WiMJRTZtpieHRm3ClAWipoHr0C","SGb3o2ONPK215NplFlfdAm7wub",1287362,118,FALSE,"resistance_to_framing_trial","6",11257,"rc2_4","6.0","2.0"
"WiMJRTZtpieHRm3ClAWipoHr0C","SGb3o2ONPK215NplFlfdAm7wub",1301277,119,FALSE,"resistance_to_framing_trial","2",13913,"rc2_5","2.0","2.0"
"WiMJRTZtpieHRm3ClAWipoHr0C","SGb3o2ONPK215NplFlfdAm7wub",1320468,120,FALSE,"resistance_to_framing_trial","5",19191,"rc2_6","5.0","2.0"
"WiMJRTZtpieHRm3ClAWipoHr0C","SGb3o2ONPK215NplFlfdAm7wub",1338943,121,FALSE,"resistance_to_framing_trial","5",18473,"rc2_7","5.0","2.0"
"uOTqwTNrjsyyKxPcRvnXPIgHy8","43D8rR8BlNFAWeUaAhMjPmugko",721418,149,FALSE,"resistance_to_framing_trial","5",6838,"rc1_1","5","3.0"
"uOTqwTNrjsyyKxPcRvnXPIgHy8","43D8rR8BlNFAWeUaAhMjPmugko",729111,150,FALSE,"resistance_to_framing_trial","6",7693,"rc1_2","6","3.0"
"uOTqwTNrjsyyKxPcRvnXPIgHy8","43D8rR8BlNFAWeUaAhMjPmugko",734995,151,FALSE,"resistance_to_framing_trial","6",5883,"rc1_3","6","3.0"
"uOTqwTNrjsyyKxPcRvnXPIgHy8","43D8rR8BlNFAWeUaAhMjPmugko",747604,152,FALSE,"resistance_to_framing_trial","1",12608,"rc1_4","1","3.0"
"uOTqwTNrjsyyKxPcRvnXPIgHy8","43D8rR8BlNFAWeUaAhMjPmugko",751892,153,FALSE,"resistance_to_framing_trial","2",4287,"rc1_5","2","3.0"
"uOTqwTNrjsyyKxPcRvnXPIgHy8","43D8rR8BlNFAWeUaAhMjPmugko",757476,154,FALSE,"resistance_to_framing_trial","5",5583,"rc1_6","5","3.0"
"uOTqwTNrjsyyKxPcRvnXPIgHy8","43D8rR8BlNFAWeUaAhMjPmugko",761058,155,FALSE,"resistance_to_framing_trial","2",3581,"rc1_7","2","3.0"
"uOTqwTNrjsyyKxPcRvnXPIgHy8","43D8rR8BlNFAWeUaAhMjPmugko",3378718,1348,FALSE,"admc_rp_a_trial","{'rp_a1': '50', 'rp_a2': '100', 'rp_a3': '20', 'rp_a4': '24', 'rp_a5': '40', 'rp_a6': '8', 'rp_a7': '51', 'rp_a8': '80', 'rp_a9': '25', 'rp_a10': '70'}",33615,"['rp_a1', 'rp_a2', 'rp_a3', 'rp_a4', 'rp_a5', 'rp_a6', 'rp_a7', 'rp_a8', 'rp_a9', 'rp_a10']","['50', '100', '20', '24', '40', '8', '51', '80', '25', '70']","3.0"
"uOTqwTNrjsyyKxPcRvnXPIgHy8","43D8rR8BlNFAWeUaAhMjPmugko",3405410,1349,FALSE,"admc_rp_b_trial","{'rp_b1': '49', 'rp_b2': '29', 'rp_b3': '80', 'rp_b4': '30', 'rp_b5': '50', 'rp_b6': '9', 'rp_b7': '20', 'rp_b8': '21', 'rp_b9': '60', 'rp_b10': '60'}",26690,"['rp_b1', 'rp_b2', 'rp_b3', 'rp_b4', 'rp_b5', 'rp_b6', 'rp_b7', 'rp_b8', 'rp_b9', 'rp_b10']","['49', '29', '80', '30', '50', '9', '20', '21', '60', '60']","3.0"
"uOTqwTNrjsyyKxPcRvnXPIgHy8","43D8rR8BlNFAWeUaAhMjPmugko",3423587,1362,FALSE,"resistance_to_framing_trial","3",2748,"a2_1","3","3.0"
"uOTqwTNrjsyyKxPcRvnXPIgHy8","43D8rR8BlNFAWeUaAhMjPmugko",3426475,1363,FALSE,"resistance_to_framing_trial","2",2887,"a2_2","2","3.0"
"uOTqwTNrjsyyKxPcRvnXPIgHy8","43D8rR8BlNFAWeUaAhMjPmugko",3428230,1364,FALSE,"resistance_to_framing_trial","2",1755,"a2_3","2","3.0"
"uOTqwTNrjsyyKxPcRvnXPIgHy8","43D8rR8BlNFAWeUaAhMjPmugko",3430040,1365,FALSE,"resistance_to_framing_trial","5",1809,"a2_4","5","3.0"
"uOTqwTNrjsyyKxPcRvnXPIgHy8","43D8rR8BlNFAWeUaAhMjPmugko",3431804,1366,FALSE,"resistance_to_framing_trial","4",1763,"a2_5","4","3.0"
"uOTqwTNrjsyyKxPcRvnXPIgHy8","43D8rR8BlNFAWeUaAhMjPmugko",3434292,1367,FALSE,"resistance_to_framing_trial","3",2487,"a2_6","3","3.0"
"uOTqwTNrjsyyKxPcRvnXPIgHy8","43D8rR8BlNFAWeUaAhMjPmugko",3436234,1368,FALSE,"resistance_to_framing_trial","3",1941,"a2_7","3","3.0"
"YLWpAkMfPa7xqIKjpo8vwJX5fJ","WGDpQkB5sVLDrNLt6vWleSLwMz",2160668,1056,FALSE,"resistance_to_framing_trial","3",5436,"a2_1","3","2.0"
"YLWpAkMfPa7xqIKjpo8vwJX5fJ","WGDpQkB5sVLDrNLt6vWleSLwMz",2164316,1057,FALSE,"resistance_to_framing_trial","4",3646,"a2_2","4","2.0"
"YLWpAkMfPa7xqIKjpo8vwJX5fJ","WGDpQkB5sVLDrNLt6vWleSLwMz",2168924,1058,FALSE,"resistance_to_framing_trial","4",4606,"a2_3","4","2.0"
"YLWpAkMfPa7xqIKjpo8vwJX5fJ","WGDpQkB5sVLDrNLt6vWleSLwMz",2172556,1059,FALSE,"resistance_to_framing_trial","4",3630,"a2_4","4","2.0"
"YLWpAkMfPa7xqIKjpo8vwJX5fJ","WGDpQkB5sVLDrNLt6vWleSLwMz",2175700,1060,FALSE,"resistance_to_framing_trial","4",3142,"a2_5","4","2.0"
"YLWpAkMfPa7xqIKjpo8vwJX5fJ","WGDpQkB5sVLDrNLt6vWleSLwMz",2178212,1061,FALSE,"resistance_to_framing_trial","4",2510,"a2_6","4","2.0"
"YLWpAkMfPa7xqIKjpo8vwJX5fJ","WGDpQkB5sVLDrNLt6vWleSLwMz",2183338,1062,FALSE,"resistance_to_framing_trial","3",5118,"a2_7","3","2.0"
"YLWpAkMfPa7xqIKjpo8vwJX5fJ","WGDpQkB5sVLDrNLt6vWleSLwMz",2229914,1069,FALSE,"admc_rp_a_trial","{'rp_a1': '48', 'rp_a2': '67', 'rp_a3': '85', 'rp_a4': '76', 'rp_a5': '75', 'rp_a6': '43', 'rp_a7': '53', 'rp_a8': '63', 'rp_a9': '66', 'rp_a10': '74'}",41611,"['rp_a1', 'rp_a2', 'rp_a3', 'rp_a4', 'rp_a5', 'rp_a6', 'rp_a7', 'rp_a8', 'rp_a9', 'rp_a10']","['48', '67', '85', '76', '75', '43', '53', '63', '66', '74']","2.0"
"YLWpAkMfPa7xqIKjpo8vwJX5fJ","WGDpQkB5sVLDrNLt6vWleSLwMz",2258840,1070,FALSE,"admc_rp_b_trial","{'rp_b1': '66', 'rp_b2': '58', 'rp_b3': '51', 'rp_b4': '56', 'rp_b5': '47', 'rp_b6': '25', 'rp_b7': '57', 'rp_b8': '69', 'rp_b9': '73', 'rp_b10': '74'}",28924,"['rp_b1', 'rp_b2', 'rp_b3', 'rp_b4', 'rp_b5', 'rp_b6', 'rp_b7', 'rp_b8', 'rp_b9', 'rp_b10']","['66', '58', '51', '56', '47', '25', '57', '69', '73', '74']","2.0"
"YLWpAkMfPa7xqIKjpo8vwJX5fJ","XbH8whxZ0zv6jeuwfZxrU614Dw",2984195,1226,FALSE,"resistance_to_framing_trial","5",4669,"rc1_1","5","2.0"
"YLWpAkMfPa7xqIKjpo8vwJX5fJ","XbH8whxZ0zv6jeuwfZxrU614Dw",2989914,1227,FALSE,"resistance_to_framing_trial","5",5718,"rc1_2","5","2.0"
"YLWpAkMfPa7xqIKjpo8vwJX5fJ","XbH8whxZ0zv6jeuwfZxrU614Dw",2992362,1228,FALSE,"resistance_to_framing_trial","3",2446,"rc1_3","3","2.0"
"YLWpAkMfPa7xqIKjpo8vwJX5fJ","XbH8whxZ0zv6jeuwfZxrU614Dw",2994554,1229,FALSE,"resistance_to_framing_trial","4",2190,"rc1_4","4","2.0"
"YLWpAkMfPa7xqIKjpo8vwJX5fJ","XbH8whxZ0zv6jeuwfZxrU614Dw",2999626,1230,FALSE,"resistance_to_framing_trial","5",5071,"rc1_5","5","2.0"
"YLWpAkMfPa7xqIKjpo8vwJX5fJ","XbH8whxZ0zv6jeuwfZxrU614Dw",3006842,1231,FALSE,"resistance_to_framing_trial","5",7215,"rc1_6","5","2.0"
"YLWpAkMfPa7xqIKjpo8vwJX5fJ","XbH8whxZ0zv6jeuwfZxrU614Dw",3009410,1232,FALSE,"resistance_to_framing_trial","3",2566,"rc1_7","3","2.0"
"DebsBC0abituuuNqZbrWt3jR91","u09piBR9Rt2XBjdzMPHEKX1BQv",233952,27,FALSE,"admc_dr_trial","{'dr1': ['B']}",8411,"dr1","0","3.0"
"DebsBC0abituuuNqZbrWt3jR91","u09piBR9Rt2XBjdzMPHEKX1BQv",241166,28,FALSE,"admc_dr_trial","{'dr2': ['E']}",7208,"dr2","0","3.0"
"DebsBC0abituuuNqZbrWt3jR91","u09piBR9Rt2XBjdzMPHEKX1BQv",244006,29,FALSE,"admc_dr_trial","{'dr3': ['D']}",2834,"dr3","0","3.0"
"DebsBC0abituuuNqZbrWt3jR91","u09piBR9Rt2XBjdzMPHEKX1BQv",250230,30,FALSE,"admc_dr_trial","{'dr4': ['E']}",6218,"dr4","0","3.0"
"DebsBC0abituuuNqZbrWt3jR91","u09piBR9Rt2XBjdzMPHEKX1BQv",253616,31,FALSE,"admc_dr_trial","{'dr5': ['C']}",3378,"dr5","0","3.0"
"DebsBC0abituuuNqZbrWt3jR91","u09piBR9Rt2XBjdzMPHEKX1BQv",257232,32,FALSE,"admc_dr_trial","{'dr6': ['D']}",3610,"dr6","0","3.0"
"DebsBC0abituuuNqZbrWt3jR91","u09piBR9Rt2XBjdzMPHEKX1BQv",265120,33,FALSE,"admc_dr_trial","{'dr7': ['E']}",7882,"dr7","1","3.0"
"DebsBC0abituuuNqZbrWt3jR91","u09piBR9Rt2XBjdzMPHEKX1BQv",272496,34,FALSE,"admc_dr_trial","{'dr8': ['C', 'D']}",7370,"dr8","1","3.0"
"DebsBC0abituuuNqZbrWt3jR91","u09piBR9Rt2XBjdzMPHEKX1BQv",282928,35,FALSE,"admc_dr_trial","{'dr9': ['B', 'D', 'E']}",10423,"dr9","2","3.0"
"DebsBC0abituuuNqZbrWt3jR91","u09piBR9Rt2XBjdzMPHEKX1BQv",289696,36,FALSE,"admc_dr_trial","{'dr10': ['B', 'C', 'E']}",6762,"dr10","2","3.0"
"DebsBC0abituuuNqZbrWt3jR91","u09piBR9Rt2XBjdzMPHEKX1BQv",1488406,258,FALSE,"resistance_to_framing_trial","1",8629,"a1_1","1","3.0"
"DebsBC0abituuuNqZbrWt3jR91","u09piBR9Rt2XBjdzMPHEKX1BQv",1492334,259,FALSE,"resistance_to_framing_trial","4",3926,"a1_2","4","3.0"
"DebsBC0abituuuNqZbrWt3jR91","u09piBR9Rt2XBjdzMPHEKX1BQv",1497998,260,FALSE,"resistance_to_framing_trial","6",5662,"a1_3","6","3.0"
"DebsBC0abituuuNqZbrWt3jR91","u09piBR9Rt2XBjdzMPHEKX1BQv",1505582,261,FALSE,"resistance_to_framing_trial","4",7582,"a1_4","4","3.0"
"DebsBC0abituuuNqZbrWt3jR91","u09piBR9Rt2XBjdzMPHEKX1BQv",1511246,262,FALSE,"resistance_to_framing_trial","4",5663,"a1_5","4","3.0"
"DebsBC0abituuuNqZbrWt3jR91","u09piBR9Rt2XBjdzMPHEKX1BQv",1515853,263,FALSE,"resistance_to_framing_trial","6",4606,"a1_6","6","3.0"
"DebsBC0abituuuNqZbrWt3jR91","u09piBR9Rt2XBjdzMPHEKX1BQv",1518581,264,FALSE,"resistance_to_framing_trial","5",2726,"a1_7","5","3.0"
"DebsBC0abituuuNqZbrWt3jR91","u09piBR9Rt2XBjdzMPHEKX1BQv",3595397,1224,FALSE,"resistance_to_framing_trial","4",5779,"rc2_1","4","3.0"
"DebsBC0abituuuNqZbrWt3jR91","u09piBR9Rt2XBjdzMPHEKX1BQv",3601044,1225,FALSE,"resistance_to_framing_trial","3",5646,"rc2_2","3","3.0"
"DebsBC0abituuuNqZbrWt3jR91","u09piBR9Rt2XBjdzMPHEKX1BQv",3603765,1226,FALSE,"resistance_to_framing_trial","4",2718,"rc2_3","4","3.0"
"DebsBC0abituuuNqZbrWt3jR91","u09piBR9Rt2XBjdzMPHEKX1BQv",3606572,1227,FALSE,"resistance_to_framing_trial","5",2806,"rc2_4","5","3.0"
"DebsBC0abituuuNqZbrWt3jR91","u09piBR9Rt2XBjdzMPHEKX1BQv",3610820,1228,FALSE,"resistance_to_framing_trial","5",4246,"rc2_5","5","3.0"
"DebsBC0abituuuNqZbrWt3jR91","u09piBR9Rt2XBjdzMPHEKX1BQv",3615084,1229,FALSE,"resistance_to_framing_trial","6",4262,"rc2_6","6","3.0"
"DebsBC0abituuuNqZbrWt3jR91","u09piBR9Rt2XBjdzMPHEKX1BQv",3618581,1230,FALSE,"resistance_to_framing_trial","6",3496,"rc2_7","6","3.0"
"u6uUvf0K4xUZvAfm4FlVQ3lGvI","uLGrjgZCILILIicmWQlp2ZTKCa",675130,107,FALSE,"resistance_to_framing_trial","2",26023,"a2_1","2","2.0"
"u6uUvf0K4xUZvAfm4FlVQ3lGvI","uLGrjgZCILILIicmWQlp2ZTKCa",686498,108,FALSE,"resistance_to_framing_trial","5",11366,"a2_2","5","2.0"
"u6uUvf0K4xUZvAfm4FlVQ3lGvI","uLGrjgZCILILIicmWQlp2ZTKCa",701401,109,FALSE,"resistance_to_framing_trial","6",14903,"a2_3","6","2.0"
"u6uUvf0K4xUZvAfm4FlVQ3lGvI","uLGrjgZCILILIicmWQlp2ZTKCa",719561,110,FALSE,"resistance_to_framing_trial","5",18159,"a2_4","5","2.0"
"u6uUvf0K4xUZvAfm4FlVQ3lGvI","uLGrjgZCILILIicmWQlp2ZTKCa",735570,111,FALSE,"resistance_to_framing_trial","4",16008,"a2_5","4","2.0"
"u6uUvf0K4xUZvAfm4FlVQ3lGvI","uLGrjgZCILILIicmWQlp2ZTKCa",747250,112,FALSE,"resistance_to_framing_trial","4",11679,"a2_6","4","2.0"
"u6uUvf0K4xUZvAfm4FlVQ3lGvI","uLGrjgZCILILIicmWQlp2ZTKCa",759729,113,FALSE,"resistance_to_framing_trial","4",12479,"a2_7","4","2.0"
"u6uUvf0K4xUZvAfm4FlVQ3lGvI","uLGrjgZCILILIicmWQlp2ZTKCa",2695753,851,FALSE,"admc_rp_a_trial","{'rp_a1': '9', 'rp_a2': '29', 'rp_a3': '2', 'rp_a4': '3', 'rp_a5': '2', 'rp_a6': '2', 'rp_a7': '0', 'rp_a8': '98', 'rp_a9': '100', 'rp_a10': '91'}",52263,"['rp_a1', 'rp_a2', 'rp_a3', 'rp_a4', 'rp_a5', 'rp_a6', 'rp_a7', 'rp_a8', 'rp_a9', 'rp_a10']","['9', '29', '2', '3', '2', '2', '0', '98', '100', '91']","2.0"
"u6uUvf0K4xUZvAfm4FlVQ3lGvI","uLGrjgZCILILIicmWQlp2ZTKCa",2738177,852,FALSE,"admc_rp_b_trial","{'rp_b1': '4', 'rp_b2': '28', 'rp_b3': '6', 'rp_b4': '6', 'rp_b5': '4', 'rp_b6': '2', 'rp_b7': '2', 'rp_b8': '94', 'rp_b9': '98', 'rp_b10': '93'}",42421,"['rp_b1', 'rp_b2', 'rp_b3', 'rp_b4', 'rp_b5', 'rp_b6', 'rp_b7', 'rp_b8', 'rp_b9', 'rp_b10']","['4', '28', '6', '6', '4', '2', '2', '94', '98', '93']","2.0"
"u6uUvf0K4xUZvAfm4FlVQ3lGvI","uLGrjgZCILILIicmWQlp2ZTKCa",3011370,1213,FALSE,"resistance_to_framing_trial","5",14991,"rc1_1","5","2.0"
"u6uUvf0K4xUZvAfm4FlVQ3lGvI","uLGrjgZCILILIicmWQlp2ZTKCa",3025066,1214,FALSE,"resistance_to_framing_trial","4",13695,"rc1_2","4","2.0"
"u6uUvf0K4xUZvAfm4FlVQ3lGvI","uLGrjgZCILILIicmWQlp2ZTKCa",3034418,1215,FALSE,"resistance_to_framing_trial","4",9351,"rc1_3","4","2.0"
"u6uUvf0K4xUZvAfm4FlVQ3lGvI","uLGrjgZCILILIicmWQlp2ZTKCa",3044002,1216,FALSE,"resistance_to_framing_trial","3",9583,"rc1_4","3","2.0"
"u6uUvf0K4xUZvAfm4FlVQ3lGvI","uLGrjgZCILILIicmWQlp2ZTKCa",3057562,1217,FALSE,"resistance_to_framing_trial","2",13559,"rc1_5","2","2.0"
"u6uUvf0K4xUZvAfm4FlVQ3lGvI","uLGrjgZCILILIicmWQlp2ZTKCa",3065842,1218,FALSE,"resistance_to_framing_trial","4",8278,"rc1_6","4","2.0"
"u6uUvf0K4xUZvAfm4FlVQ3lGvI","uLGrjgZCILILIicmWQlp2ZTKCa",3082897,1219,FALSE,"resistance_to_framing_trial","2",17055,"rc1_7","2","2.0"
"pXLD8gCCp0YZ9CquUV1lQCIj5c","1zlxdqkJSNjpxeTuzeYDS0hy3y",1310179,988,FALSE,"admc_dr_trial","{'dr1': ['B']}",22880,"dr1","0","3.0"
"pXLD8gCCp0YZ9CquUV1lQCIj5c","1zlxdqkJSNjpxeTuzeYDS0hy3y",1335876,989,FALSE,"admc_dr_trial","{'dr2': ['B']}",25692,"dr2","0","3.0"
"pXLD8gCCp0YZ9CquUV1lQCIj5c","1zlxdqkJSNjpxeTuzeYDS0hy3y",1356771,990,FALSE,"admc_dr_trial","{'dr3': ['D']}",20890,"dr3","0","3.0"
"pXLD8gCCp0YZ9CquUV1lQCIj5c","1zlxdqkJSNjpxeTuzeYDS0hy3y",1367852,991,FALSE,"admc_dr_trial","{'dr4': ['C']}",11078,"dr4","0","3.0"
"pXLD8gCCp0YZ9CquUV1lQCIj5c","1zlxdqkJSNjpxeTuzeYDS0hy3y",1407978,992,FALSE,"admc_dr_trial","{'dr5': ['E']}",40119,"dr5","0","3.0"
"pXLD8gCCp0YZ9CquUV1lQCIj5c","1zlxdqkJSNjpxeTuzeYDS0hy3y",1423678,993,FALSE,"admc_dr_trial","{'dr6': ['E']}",15695,"dr6","1","3.0"
"pXLD8gCCp0YZ9CquUV1lQCIj5c","1zlxdqkJSNjpxeTuzeYDS0hy3y",1439431,994,FALSE,"admc_dr_trial","{'dr7': ['E']}",15747,"dr7","1","3.0"
"pXLD8gCCp0YZ9CquUV1lQCIj5c","1zlxdqkJSNjpxeTuzeYDS0hy3y",1484634,995,FALSE,"admc_dr_trial","{'dr8': ['A', 'C']}",45194,"dr8","2","3.0"
"pXLD8gCCp0YZ9CquUV1lQCIj5c","1zlxdqkJSNjpxeTuzeYDS0hy3y",1505724,996,FALSE,"admc_dr_trial","{'dr9': ['A', 'B', 'D']}",21084,"dr9","2","3.0"
"pXLD8gCCp0YZ9CquUV1lQCIj5c","1zlxdqkJSNjpxeTuzeYDS0hy3y",1533620,997,FALSE,"admc_dr_trial","{'dr10': ['B', 'D', 'E']}",27886,"dr10","2","3.0"
"pXLD8gCCp0YZ9CquUV1lQCIj5c","1zlxdqkJSNjpxeTuzeYDS0hy3y",2353055,1076,FALSE,"resistance_to_framing_trial","5",12782,"a1_1","5","3.0"
"pXLD8gCCp0YZ9CquUV1lQCIj5c","1zlxdqkJSNjpxeTuzeYDS0hy3y",2366979,1077,FALSE,"resistance_to_framing_trial","5",13922,"a1_2","5","3.0"
"pXLD8gCCp0YZ9CquUV1lQCIj5c","1zlxdqkJSNjpxeTuzeYDS0hy3y",2385243,1078,FALSE,"resistance_to_framing_trial","6",18263,"a1_3","6","3.0"
"pXLD8gCCp0YZ9CquUV1lQCIj5c","1zlxdqkJSNjpxeTuzeYDS0hy3y",2401979,1079,FALSE,"resistance_to_framing_trial","3",16735,"a1_4","3","3.0"
"pXLD8gCCp0YZ9CquUV1lQCIj5c","1zlxdqkJSNjpxeTuzeYDS0hy3y",2413267,1080,FALSE,"resistance_to_framing_trial","4",11286,"a1_5","4","3.0"
"pXLD8gCCp0YZ9CquUV1lQCIj5c","1zlxdqkJSNjpxeTuzeYDS0hy3y",2425249,1081,FALSE,"resistance_to_framing_trial","5",11980,"a1_6","5","3.0"
"pXLD8gCCp0YZ9CquUV1lQCIj5c","1zlxdqkJSNjpxeTuzeYDS0hy3y",2444980,1082,FALSE,"resistance_to_framing_trial","6",19728,"a1_7","6","3.0"
"pXLD8gCCp0YZ9CquUV1lQCIj5c","1zlxdqkJSNjpxeTuzeYDS0hy3y",4432357,1377,FALSE,"resistance_to_framing_trial","2",16826,"rc2_1","2","3.0"
"pXLD8gCCp0YZ9CquUV1lQCIj5c","1zlxdqkJSNjpxeTuzeYDS0hy3y",4444810,1378,FALSE,"resistance_to_framing_trial","4",12452,"rc2_2","4","3.0"
"pXLD8gCCp0YZ9CquUV1lQCIj5c","1zlxdqkJSNjpxeTuzeYDS0hy3y",4453893,1379,FALSE,"resistance_to_framing_trial","5",9082,"rc2_3","5","3.0"
"pXLD8gCCp0YZ9CquUV1lQCIj5c","1zlxdqkJSNjpxeTuzeYDS0hy3y",4459689,1380,FALSE,"resistance_to_framing_trial","5",5795,"rc2_4","5","3.0"
"pXLD8gCCp0YZ9CquUV1lQCIj5c","1zlxdqkJSNjpxeTuzeYDS0hy3y",4466123,1381,FALSE,"resistance_to_framing_trial","3",6433,"rc2_5","3","3.0"
"pXLD8gCCp0YZ9CquUV1lQCIj5c","1zlxdqkJSNjpxeTuzeYDS0hy3y",4475047,1382,FALSE,"resistance_to_framing_trial","3",8923,"rc2_6","3","3.0"
"pXLD8gCCp0YZ9CquUV1lQCIj5c","1zlxdqkJSNjpxeTuzeYDS0hy3y",4479721,1383,FALSE,"resistance_to_framing_trial","2",4673,"rc2_7","2","3.0"
"TO5bzVfQIW7SDw17EWfH8QqEic","Qk8I6AjR4nO4VZuCBLAzMGCTet",246154,20,FALSE,"resistance_to_framing_trial","1",26005,"rc1_1","1","2.0"
"TO5bzVfQIW7SDw17EWfH8QqEic","Qk8I6AjR4nO4VZuCBLAzMGCTet",271251,21,FALSE,"resistance_to_framing_trial","2",25096,"rc1_2","2","2.0"
"TO5bzVfQIW7SDw17EWfH8QqEic","Qk8I6AjR4nO4VZuCBLAzMGCTet",321573,22,FALSE,"resistance_to_framing_trial","2",50320,"rc1_3","2","2.0"
"TO5bzVfQIW7SDw17EWfH8QqEic","Qk8I6AjR4nO4VZuCBLAzMGCTet",351635,23,FALSE,"resistance_to_framing_trial","2",30061,"rc1_4","2","2.0"
"TO5bzVfQIW7SDw17EWfH8QqEic","Qk8I6AjR4nO4VZuCBLAzMGCTet",393473,24,FALSE,"resistance_to_framing_trial","1",41837,"rc1_5","1","2.0"
"TO5bzVfQIW7SDw17EWfH8QqEic","Qk8I6AjR4nO4VZuCBLAzMGCTet",422358,25,FALSE,"resistance_to_framing_trial","2",28884,"rc1_6","2","2.0"
"TO5bzVfQIW7SDw17EWfH8QqEic","Qk8I6AjR4nO4VZuCBLAzMGCTet",451577,26,FALSE,"resistance_to_framing_trial","1",29217,"rc1_7","1","2.0"
"TO5bzVfQIW7SDw17EWfH8QqEic","Qk8I6AjR4nO4VZuCBLAzMGCTet",1733298,172,FALSE,"resistance_to_framing_trial","3",49486,"a2_1","3","2.0"
"TO5bzVfQIW7SDw17EWfH8QqEic","Qk8I6AjR4nO4VZuCBLAzMGCTet",1757544,173,FALSE,"resistance_to_framing_trial","4",24244,"a2_2","4","2.0"
"TO5bzVfQIW7SDw17EWfH8QqEic","Qk8I6AjR4nO4VZuCBLAzMGCTet",1789044,174,FALSE,"resistance_to_framing_trial","5",31499,"a2_3","5","2.0"
"TO5bzVfQIW7SDw17EWfH8QqEic","Qk8I6AjR4nO4VZuCBLAzMGCTet",1805422,175,FALSE,"resistance_to_framing_trial","3",16377,"a2_4","3","2.0"
"TO5bzVfQIW7SDw17EWfH8QqEic","Qk8I6AjR4nO4VZuCBLAzMGCTet",1825542,176,FALSE,"resistance_to_framing_trial","2",20119,"a2_5","2","2.0"
"TO5bzVfQIW7SDw17EWfH8QqEic","Qk8I6AjR4nO4VZuCBLAzMGCTet",1845359,177,FALSE,"resistance_to_framing_trial","3",19815,"a2_6","3","2.0"
"TO5bzVfQIW7SDw17EWfH8QqEic","Qk8I6AjR4nO4VZuCBLAzMGCTet",1865038,178,FALSE,"resistance_to_framing_trial","2",19679,"a2_7","2","2.0"
"TO5bzVfQIW7SDw17EWfH8QqEic","Qk8I6AjR4nO4VZuCBLAzMGCTet",3043228,259,FALSE,"admc_rp_a_trial","{'rp_a1': '30', 'rp_a2': '45', 'rp_a3': '48', 'rp_a4': '15', 'rp_a5': '5', 'rp_a6': '5', 'rp_a7': '2', 'rp_a8': '84', 'rp_a9': '100', 'rp_a10': '66'}",78997,"['rp_a1', 'rp_a2', 'rp_a3', 'rp_a4', 'rp_a5', 'rp_a6', 'rp_a7', 'rp_a8', 'rp_a9', 'rp_a10']","['30', '45', '48', '15', '5', '5', '2', '84', '100', '66']","2.0"
"TO5bzVfQIW7SDw17EWfH8QqEic","Qk8I6AjR4nO4VZuCBLAzMGCTet",3102660,260,FALSE,"admc_rp_b_trial","{'rp_b1': '30', 'rp_b2': '3', 'rp_b3': '69', 'rp_b4': '30', 'rp_b5': '6', 'rp_b6': '8', 'rp_b7': '13', 'rp_b8': '89', 'rp_b9': '100', 'rp_b10': '34'}",59429,"['rp_b1', 'rp_b2', 'rp_b3', 'rp_b4', 'rp_b5', 'rp_b6', 'rp_b7', 'rp_b8', 'rp_b9', 'rp_b10']","['30', '3', '69', '30', '6', '8', '13', '89', '100', '34']","2.0"
"rDRcOADIKvymJ2TSyULLnxWo4D","6buOomZW04tVoIyk2wo6RJC08Q",368712,25,FALSE,"resistance_to_framing_trial","2",5447,"rc2_1","2.0","3.0"
"rDRcOADIKvymJ2TSyULLnxWo4D","6buOomZW04tVoIyk2wo6RJC08Q",386655,26,FALSE,"resistance_to_framing_trial","4",17943,"rc2_2","4.0","3.0"
"rDRcOADIKvymJ2TSyULLnxWo4D","6buOomZW04tVoIyk2wo6RJC08Q",398307,27,FALSE,"resistance_to_framing_trial","1",11652,"rc2_3","1.0","3.0"
"rDRcOADIKvymJ2TSyULLnxWo4D","6buOomZW04tVoIyk2wo6RJC08Q",411789,28,FALSE,"resistance_to_framing_trial","2",13481,"rc2_4","2.0","3.0"
"rDRcOADIKvymJ2TSyULLnxWo4D","6buOomZW04tVoIyk2wo6RJC08Q",444945,29,FALSE,"resistance_to_framing_trial","4",33155,"rc2_5","4.0","3.0"
"rDRcOADIKvymJ2TSyULLnxWo4D","6buOomZW04tVoIyk2wo6RJC08Q",477326,30,FALSE,"resistance_to_framing_trial","6",32379,"rc2_6","6.0","3.0"
"rDRcOADIKvymJ2TSyULLnxWo4D","6buOomZW04tVoIyk2wo6RJC08Q",536968,31,FALSE,"resistance_to_framing_trial","3",59641,"rc2_7","3.0","3.0"
"rDRcOADIKvymJ2TSyULLnxWo4D","6buOomZW04tVoIyk2wo6RJC08Q",615948,39,FALSE,"admc_dr_trial","{'dr1': ['C']}",35503,"dr1","1.0","3.0"
"rDRcOADIKvymJ2TSyULLnxWo4D","6buOomZW04tVoIyk2wo6RJC08Q",648086,40,FALSE,"admc_dr_trial","{'dr2': ['A']}",32135,"dr2","0.0","3.0"
"rDRcOADIKvymJ2TSyULLnxWo4D","6buOomZW04tVoIyk2wo6RJC08Q",679272,41,FALSE,"admc_dr_trial","{'dr3': ['C']}",31184,"dr3","1.0","3.0"
"rDRcOADIKvymJ2TSyULLnxWo4D","6buOomZW04tVoIyk2wo6RJC08Q",699964,42,FALSE,"admc_dr_trial","{'dr4': ['None']}",20690,"dr4","1.0","3.0"
"rDRcOADIKvymJ2TSyULLnxWo4D","6buOomZW04tVoIyk2wo6RJC08Q",745965,43,TRUE,"admc_dr_trial","{'dr5': []}",46000,"dr5","0.0","3.0"
"rDRcOADIKvymJ2TSyULLnxWo4D","6buOomZW04tVoIyk2wo6RJC08Q",776146,44,FALSE,"admc_dr_trial","{'dr6': ['A']}",30179,"dr6","0.0","3.0"
"rDRcOADIKvymJ2TSyULLnxWo4D","6buOomZW04tVoIyk2wo6RJC08Q",798200,45,FALSE,"admc_dr_trial","{'dr7': ['B']}",22051,"dr7","0.0","3.0"
"rDRcOADIKvymJ2TSyULLnxWo4D","6buOomZW04tVoIyk2wo6RJC08Q",830062,46,FALSE,"admc_dr_trial","{'dr8': ['A', 'B']}",31860,"dr8","1.0","3.0"
"rDRcOADIKvymJ2TSyULLnxWo4D","6buOomZW04tVoIyk2wo6RJC08Q",876064,47,TRUE,"admc_dr_trial","{'dr9': ['None']}",46000,"dr9","0.0","3.0"
"rDRcOADIKvymJ2TSyULLnxWo4D","6buOomZW04tVoIyk2wo6RJC08Q",920256,48,FALSE,"admc_dr_trial","{'dr10': ['B', 'C', 'E']}",44190,"dr10","2.0","3.0"
"rDRcOADIKvymJ2TSyULLnxWo4D","6buOomZW04tVoIyk2wo6RJC08Q",16754601,1313,FALSE,"resistance_to_framing_trial","5",14849,"a1_1","5.0","3.0"
"rDRcOADIKvymJ2TSyULLnxWo4D","6buOomZW04tVoIyk2wo6RJC08Q",16762465,1314,FALSE,"resistance_to_framing_trial","1",7863,"a1_2","1.0","3.0"
"rDRcOADIKvymJ2TSyULLnxWo4D","6buOomZW04tVoIyk2wo6RJC08Q",16768906,1315,FALSE,"resistance_to_framing_trial","4",6440,"a1_3","4.0","3.0"
"rDRcOADIKvymJ2TSyULLnxWo4D","6buOomZW04tVoIyk2wo6RJC08Q",16794291,1316,FALSE,"resistance_to_framing_trial","4",25385,"a1_4","4.0","3.0"
"rDRcOADIKvymJ2TSyULLnxWo4D","6buOomZW04tVoIyk2wo6RJC08Q",16805049,1317,FALSE,"resistance_to_framing_trial","3",10757,"a1_5","3.0","3.0"
"rDRcOADIKvymJ2TSyULLnxWo4D","6buOomZW04tVoIyk2wo6RJC08Q",16822966,1318,FALSE,"resistance_to_framing_trial","3",17916,"a1_6","3.0","3.0"
"rDRcOADIKvymJ2TSyULLnxWo4D","6buOomZW04tVoIyk2wo6RJC08Q",16836019,1319,FALSE,"resistance_to_framing_trial","5",13053,"a1_7","5.0","3.0"
"l4lokMvlJ9evH2m2pyxepzLhBw","jY09hprMdKCUUDstz8hJGPxGOP",705929,588,FALSE,"admc_rp_a_trial","{'rp_a1': '4', 'rp_a2': '0', 'rp_a3': '3', 'rp_a4': '5', 'rp_a5': '1', 'rp_a6': '1', 'rp_a7': '1', 'rp_a8': '100', 'rp_a9': '30', 'rp_a10': '97'}",88711,"['rp_a1', 'rp_a2', 'rp_a3', 'rp_a4', 'rp_a5', 'rp_a6', 'rp_a7', 'rp_a8', 'rp_a9', 'rp_a10']","['4', '0', '3', '5', '1', '1', '1', '100', '30', '97']","2.0"
"l4lokMvlJ9evH2m2pyxepzLhBw","jY09hprMdKCUUDstz8hJGPxGOP",762567,589,FALSE,"admc_rp_b_trial","{'rp_b1': '10', 'rp_b2': '0', 'rp_b3': '7', 'rp_b4': '10', 'rp_b5': '40', 'rp_b6': '0', 'rp_b7': '0', 'rp_b8': '60', 'rp_b9': '10', 'rp_b10': '2'}",56635,"['rp_b1', 'rp_b2', 'rp_b3', 'rp_b4', 'rp_b5', 'rp_b6', 'rp_b7', 'rp_b8', 'rp_b9', 'rp_b10']","['10', '0', '7', '10', '40', '0', '0', '60', '10', '2']","2.0"
"l4lokMvlJ9evH2m2pyxepzLhBw","jY09hprMdKCUUDstz8hJGPxGOP",1143033,663,FALSE,"resistance_to_framing_trial","2",22094,"a2_1","2","2.0"
"l4lokMvlJ9evH2m2pyxepzLhBw","jY09hprMdKCUUDstz8hJGPxGOP",1153406,664,FALSE,"resistance_to_framing_trial","5",10373,"a2_2","5","2.0"
"l4lokMvlJ9evH2m2pyxepzLhBw","jY09hprMdKCUUDstz8hJGPxGOP",1170638,665,FALSE,"resistance_to_framing_trial","4",17231,"a2_3","4","2.0"
"l4lokMvlJ9evH2m2pyxepzLhBw","jY09hprMdKCUUDstz8hJGPxGOP",1183662,666,FALSE,"resistance_to_framing_trial","5",13022,"a2_4","5","2.0"
"l4lokMvlJ9evH2m2pyxepzLhBw","jY09hprMdKCUUDstz8hJGPxGOP",1194076,667,FALSE,"resistance_to_framing_trial","4",10413,"a2_5","4","2.0"
"l4lokMvlJ9evH2m2pyxepzLhBw","jY09hprMdKCUUDstz8hJGPxGOP",1205282,668,FALSE,"resistance_to_framing_trial","4",11205,"a2_6","4","2.0"
"l4lokMvlJ9evH2m2pyxepzLhBw","jY09hprMdKCUUDstz8hJGPxGOP",1213878,669,FALSE,"resistance_to_framing_trial","3",8595,"a2_7","3","2.0"
"l4lokMvlJ9evH2m2pyxepzLhBw","jY09hprMdKCUUDstz8hJGPxGOP",1345180,684,FALSE,"resistance_to_framing_trial","3",9214,"rc1_1","3","2.0"
"l4lokMvlJ9evH2m2pyxepzLhBw","jY09hprMdKCUUDstz8hJGPxGOP",1362058,685,FALSE,"resistance_to_framing_trial","3",16877,"rc1_2","3","2.0"
"l4lokMvlJ9evH2m2pyxepzLhBw","jY09hprMdKCUUDstz8hJGPxGOP",1370239,686,FALSE,"resistance_to_framing_trial","3",8178,"rc1_3","3","2.0"
"l4lokMvlJ9evH2m2pyxepzLhBw","jY09hprMdKCUUDstz8hJGPxGOP",1380568,687,FALSE,"resistance_to_framing_trial","4",10328,"rc1_4","4","2.0"
"l4lokMvlJ9evH2m2pyxepzLhBw","jY09hprMdKCUUDstz8hJGPxGOP",1398292,688,FALSE,"resistance_to_framing_trial","1",17723,"rc1_5","1","2.0"
"l4lokMvlJ9evH2m2pyxepzLhBw","jY09hprMdKCUUDstz8hJGPxGOP",1410855,689,FALSE,"resistance_to_framing_trial","3",12561,"rc1_6","3","2.0"
"l4lokMvlJ9evH2m2pyxepzLhBw","jY09hprMdKCUUDstz8hJGPxGOP",1425783,690,FALSE,"resistance_to_framing_trial","1",14926,"rc1_7","1","2.0"
"q4nRVOcjo2BHXLaJItbKSgI6Cl","gkstQDYnOuTw7vuImoEZYZ5h09",329326,32,FALSE,"resistance_to_framing_trial","5",14666,"a1_1","5","3.0"
"q4nRVOcjo2BHXLaJItbKSgI6Cl","gkstQDYnOuTw7vuImoEZYZ5h09",342727,33,FALSE,"resistance_to_framing_trial","3",13399,"a1_2","3","3.0"
"q4nRVOcjo2BHXLaJItbKSgI6Cl","gkstQDYnOuTw7vuImoEZYZ5h09",350784,34,FALSE,"resistance_to_framing_trial","4",8056,"a1_3","4","3.0"
"q4nRVOcjo2BHXLaJItbKSgI6Cl","gkstQDYnOuTw7vuImoEZYZ5h09",373640,35,FALSE,"resistance_to_framing_trial","3",22854,"a1_4","3","3.0"
"q4nRVOcjo2BHXLaJItbKSgI6Cl","gkstQDYnOuTw7vuImoEZYZ5h09",380350,36,FALSE,"resistance_to_framing_trial","4",6709,"a1_5","4","3.0"
"q4nRVOcjo2BHXLaJItbKSgI6Cl","gkstQDYnOuTw7vuImoEZYZ5h09",388999,37,FALSE,"resistance_to_framing_trial","5",8646,"a1_6","5","3.0"
"q4nRVOcjo2BHXLaJItbKSgI6Cl","gkstQDYnOuTw7vuImoEZYZ5h09",406292,38,FALSE,"resistance_to_framing_trial","5",17293,"a1_7","5","3.0"
"q4nRVOcjo2BHXLaJItbKSgI6Cl","gkstQDYnOuTw7vuImoEZYZ5h09",568407,65,FALSE,"admc_dr_trial","{'dr1': ['C']}",16557,"dr1","1","3.0"
"q4nRVOcjo2BHXLaJItbKSgI6Cl","gkstQDYnOuTw7vuImoEZYZ5h09",585331,66,FALSE,"admc_dr_trial","{'dr2': ['D']}",16920,"dr2","1","3.0"
"q4nRVOcjo2BHXLaJItbKSgI6Cl","gkstQDYnOuTw7vuImoEZYZ5h09",597665,67,FALSE,"admc_dr_trial","{'dr3': ['D']}",12330,"dr3","0","3.0"
"q4nRVOcjo2BHXLaJItbKSgI6Cl","gkstQDYnOuTw7vuImoEZYZ5h09",607763,68,FALSE,"admc_dr_trial","{'dr4': ['None']}",10094,"dr4","1","3.0"
"q4nRVOcjo2BHXLaJItbKSgI6Cl","gkstQDYnOuTw7vuImoEZYZ5h09",624873,69,FALSE,"admc_dr_trial","{'dr5': ['A']}",17105,"dr5","1","3.0"
"q4nRVOcjo2BHXLaJItbKSgI6Cl","gkstQDYnOuTw7vuImoEZYZ5h09",638979,70,FALSE,"admc_dr_trial","{'dr6': ['E']}",14102,"dr6","1","3.0"
"q4nRVOcjo2BHXLaJItbKSgI6Cl","gkstQDYnOuTw7vuImoEZYZ5h09",653405,71,FALSE,"admc_dr_trial","{'dr7': ['E']}",14422,"dr7","1","3.0"
"q4nRVOcjo2BHXLaJItbKSgI6Cl","gkstQDYnOuTw7vuImoEZYZ5h09",671785,72,FALSE,"admc_dr_trial","{'dr8': ['A', 'C']}",18377,"dr8","2","3.0"
"q4nRVOcjo2BHXLaJItbKSgI6Cl","gkstQDYnOuTw7vuImoEZYZ5h09",691665,73,FALSE,"admc_dr_trial","{'dr9': ['A', 'D', 'E']}",19876,"dr9","3","3.0"
"q4nRVOcjo2BHXLaJItbKSgI6Cl","gkstQDYnOuTw7vuImoEZYZ5h09",735513,74,FALSE,"admc_dr_trial","{'dr10': ['A', 'B', 'D']}",43844,"dr10","1","3.0"
"q4nRVOcjo2BHXLaJItbKSgI6Cl","gkstQDYnOuTw7vuImoEZYZ5h09",2480547,1083,FALSE,"resistance_to_framing_trial","3",15262,"rc2_1","3","3.0"
"q4nRVOcjo2BHXLaJItbKSgI6Cl","gkstQDYnOuTw7vuImoEZYZ5h09",2492067,1084,FALSE,"resistance_to_framing_trial","3",11518,"rc2_2","3","3.0"
"q4nRVOcjo2BHXLaJItbKSgI6Cl","gkstQDYnOuTw7vuImoEZYZ5h09",2503538,1085,FALSE,"resistance_to_framing_trial","3",11471,"rc2_3","3","3.0"
"q4nRVOcjo2BHXLaJItbKSgI6Cl","gkstQDYnOuTw7vuImoEZYZ5h09",2516195,1086,FALSE,"resistance_to_framing_trial","3",12654,"rc2_4","3","3.0"
"q4nRVOcjo2BHXLaJItbKSgI6Cl","gkstQDYnOuTw7vuImoEZYZ5h09",2529916,1087,FALSE,"resistance_to_framing_trial","5",13721,"rc2_5","5","3.0"
"q4nRVOcjo2BHXLaJItbKSgI6Cl","gkstQDYnOuTw7vuImoEZYZ5h09",2547328,1088,FALSE,"resistance_to_framing_trial","2",17410,"rc2_6","2","3.0"
"q4nRVOcjo2BHXLaJItbKSgI6Cl","gkstQDYnOuTw7vuImoEZYZ5h09",2560425,1089,FALSE,"resistance_to_framing_trial","3",13095,"rc2_7","3","3.0"
"Mx8vIXApijMaRfRVx5CwheNj7R","sRPWARk8wXzRjwNYFCV7c96tAO",3029002,186,FALSE,"resistance_to_framing_trial","5",38423,"rc2_1","5.0","2.0"
"Mx8vIXApijMaRfRVx5CwheNj7R","sRPWARk8wXzRjwNYFCV7c96tAO",3065184,187,FALSE,"resistance_to_framing_trial","3",36179,"rc2_2","3.0","2.0"
"Mx8vIXApijMaRfRVx5CwheNj7R","sRPWARk8wXzRjwNYFCV7c96tAO",3115216,188,FALSE,"resistance_to_framing_trial","4",50031,"rc2_3","4.0","2.0"
"Mx8vIXApijMaRfRVx5CwheNj7R","sRPWARk8wXzRjwNYFCV7c96tAO",3147618,189,FALSE,"resistance_to_framing_trial","2",32400,"rc2_4","2.0","2.0"
"Mx8vIXApijMaRfRVx5CwheNj7R","sRPWARk8wXzRjwNYFCV7c96tAO",3196400,190,FALSE,"resistance_to_framing_trial","4",48780,"rc2_5","4.0","2.0"
"Mx8vIXApijMaRfRVx5CwheNj7R","sRPWARk8wXzRjwNYFCV7c96tAO",3240146,191,FALSE,"resistance_to_framing_trial","3",43744,"rc2_6","3.0","2.0"
"Mx8vIXApijMaRfRVx5CwheNj7R","sRPWARk8wXzRjwNYFCV7c96tAO",3278154,192,FALSE,"resistance_to_framing_trial","3",38005,"rc2_7","3.0","2.0"
"Mx8vIXApijMaRfRVx5CwheNj7R","sRPWARk8wXzRjwNYFCV7c96tAO",3709720,221,TRUE,"admc_dr_trial","{'dr1': ['A']}",45997,"dr1","0.0","2.0"
"Mx8vIXApijMaRfRVx5CwheNj7R","sRPWARk8wXzRjwNYFCV7c96tAO",3736458,222,FALSE,"admc_dr_trial","{'dr2': ['A']}",26733,"dr2","0.0","2.0"
"Mx8vIXApijMaRfRVx5CwheNj7R","sRPWARk8wXzRjwNYFCV7c96tAO",3769184,223,FALSE,"admc_dr_trial","{'dr3': ['C']}",32718,"dr3","1.0","2.0"
"Mx8vIXApijMaRfRVx5CwheNj7R","sRPWARk8wXzRjwNYFCV7c96tAO",3781994,224,FALSE,"admc_dr_trial","{'dr4': ['None']}",12802,"dr4","1.0","2.0"
"Mx8vIXApijMaRfRVx5CwheNj7R","sRPWARk8wXzRjwNYFCV7c96tAO",3827999,225,TRUE,"admc_dr_trial","{'dr5': []}",45997,"dr5","0.0","2.0"
"Mx8vIXApijMaRfRVx5CwheNj7R","sRPWARk8wXzRjwNYFCV7c96tAO",3863418,226,FALSE,"admc_dr_trial","{'dr6': ['C']}",35410,"dr6","0.0","2.0"
"Mx8vIXApijMaRfRVx5CwheNj7R","sRPWARk8wXzRjwNYFCV7c96tAO",3896459,227,FALSE,"admc_dr_trial","{'dr7': ['C']}",33031,"dr7","0.0","2.0"
"Mx8vIXApijMaRfRVx5CwheNj7R","sRPWARk8wXzRjwNYFCV7c96tAO",3941922,228,FALSE,"admc_dr_trial","{'dr8': ['A', 'C']}",45453,"dr8","2.0","2.0"
"Mx8vIXApijMaRfRVx5CwheNj7R","sRPWARk8wXzRjwNYFCV7c96tAO",3969385,229,FALSE,"admc_dr_trial","{'dr9': ['A', 'D', 'E']}",27452,"dr9","3.0","2.0"
"Mx8vIXApijMaRfRVx5CwheNj7R","sRPWARk8wXzRjwNYFCV7c96tAO",4004794,230,FALSE,"admc_dr_trial","{'dr10': ['A', 'C', 'D']}",35402,"dr10","2.0","2.0"
"Mx8vIXApijMaRfRVx5CwheNj7R","sRPWARk8wXzRjwNYFCV7c96tAO",6104098,1310,FALSE,"resistance_to_framing_trial","5",16070,"a1_1","5.0","2.0"
"Mx8vIXApijMaRfRVx5CwheNj7R","sRPWARk8wXzRjwNYFCV7c96tAO",6120345,1311,FALSE,"resistance_to_framing_trial","5",16245,"a1_2","5.0","2.0"
"Mx8vIXApijMaRfRVx5CwheNj7R","sRPWARk8wXzRjwNYFCV7c96tAO",6134425,1312,FALSE,"resistance_to_framing_trial","3",14077,"a1_3","3.0","2.0"
"Mx8vIXApijMaRfRVx5CwheNj7R","sRPWARk8wXzRjwNYFCV7c96tAO",6177921,1313,FALSE,"resistance_to_framing_trial","5",43493,"a1_4","5.0","2.0"
"Mx8vIXApijMaRfRVx5CwheNj7R","sRPWARk8wXzRjwNYFCV7c96tAO",6197216,1314,FALSE,"resistance_to_framing_trial","5",19292,"a1_5","5.0","2.0"
"Mx8vIXApijMaRfRVx5CwheNj7R","sRPWARk8wXzRjwNYFCV7c96tAO",6219945,1315,FALSE,"resistance_to_framing_trial","2",22728,"a1_6","2.0","2.0"
"Mx8vIXApijMaRfRVx5CwheNj7R","sRPWARk8wXzRjwNYFCV7c96tAO",6277554,1316,FALSE,"resistance_to_framing_trial","4",57606,"a1_7","4.0","2.0"
"rLdicymNXp13NNqPLOsOh3gBX0","HG6lEAtrdz7mIE4YnvBeGamFfj",180426,12,FALSE,"admc_rp_a_trial","{'rp_a1': '49', 'rp_a2': '9', 'rp_a3': '9', 'rp_a4': '19', 'rp_a5': '9', 'rp_a6': '9', 'rp_a7': '20', 'rp_a8': '99', 'rp_a9': '100', 'rp_a10': '69'}",140349,"['rp_a1', 'rp_a2', 'rp_a3', 'rp_a4', 'rp_a5', 'rp_a6', 'rp_a7', 'rp_a8', 'rp_a9', 'rp_a10']","['49', '9', '9', '19', '9', '9', '20', '99', '100', '69']","3.0"
"rLdicymNXp13NNqPLOsOh3gBX0","HG6lEAtrdz7mIE4YnvBeGamFfj",236284,13,FALSE,"admc_rp_b_trial","{'rp_b1': '79', 'rp_b2': '69', 'rp_b3': '59', 'rp_b4': '80', 'rp_b5': '49', 'rp_b6': '19', 'rp_b7': '39', 'rp_b8': '29', 'rp_b9': '91', 'rp_b10': '39'}",55855,"['rp_b1', 'rp_b2', 'rp_b3', 'rp_b4', 'rp_b5', 'rp_b6', 'rp_b7', 'rp_b8', 'rp_b9', 'rp_b10']","['79', '69', '59', '80', '49', '19', '39', '29', '91', '39']","3.0"
"rLdicymNXp13NNqPLOsOh3gBX0","HG6lEAtrdz7mIE4YnvBeGamFfj",412965,26,FALSE,"resistance_to_framing_trial","2",51299,"rc1_1","2","3.0"
"rLdicymNXp13NNqPLOsOh3gBX0","HG6lEAtrdz7mIE4YnvBeGamFfj",471009,27,FALSE,"resistance_to_framing_trial","3",58038,"rc1_2","3","3.0"
"rLdicymNXp13NNqPLOsOh3gBX0","HG6lEAtrdz7mIE4YnvBeGamFfj",526831,28,FALSE,"resistance_to_framing_trial","3",55821,"rc1_3","3","3.0"
"rLdicymNXp13NNqPLOsOh3gBX0","HG6lEAtrdz7mIE4YnvBeGamFfj",574912,29,FALSE,"resistance_to_framing_trial","4",48081,"rc1_4","4","3.0"
"rLdicymNXp13NNqPLOsOh3gBX0","HG6lEAtrdz7mIE4YnvBeGamFfj",634151,30,FALSE,"resistance_to_framing_trial","4",59238,"rc1_5","4","3.0"
"rLdicymNXp13NNqPLOsOh3gBX0","HG6lEAtrdz7mIE4YnvBeGamFfj",695221,31,TRUE,"resistance_to_framing_trial","1",61070,"rc1_6","1","3.0"
"rLdicymNXp13NNqPLOsOh3gBX0","HG6lEAtrdz7mIE4YnvBeGamFfj",731125,32,FALSE,"resistance_to_framing_trial","3",35903,"rc1_7","3","3.0"
"rLdicymNXp13NNqPLOsOh3gBX0","HG6lEAtrdz7mIE4YnvBeGamFfj",3138194,738,FALSE,"resistance_to_framing_trial","5",22508,"a2_1","5","3.0"
"rLdicymNXp13NNqPLOsOh3gBX0","HG6lEAtrdz7mIE4YnvBeGamFfj",3158736,739,FALSE,"resistance_to_framing_trial","5",20540,"a2_2","5","3.0"
"rLdicymNXp13NNqPLOsOh3gBX0","HG6lEAtrdz7mIE4YnvBeGamFfj",3172845,740,FALSE,"resistance_to_framing_trial","4",14110,"a2_3","4","3.0"
"rLdicymNXp13NNqPLOsOh3gBX0","HG6lEAtrdz7mIE4YnvBeGamFfj",3191215,741,FALSE,"resistance_to_framing_trial","4",18370,"a2_4","4","3.0"
"rLdicymNXp13NNqPLOsOh3gBX0","HG6lEAtrdz7mIE4YnvBeGamFfj",3208164,742,FALSE,"resistance_to_framing_trial","5",16948,"a2_5","5","3.0"
"rLdicymNXp13NNqPLOsOh3gBX0","HG6lEAtrdz7mIE4YnvBeGamFfj",3226746,743,FALSE,"resistance_to_framing_trial","5",18582,"a2_6","5","3.0"
"rLdicymNXp13NNqPLOsOh3gBX0","HG6lEAtrdz7mIE4YnvBeGamFfj",3238887,744,FALSE,"resistance_to_framing_trial","5",12142,"a2_7","5","3.0"
"Scbpoqeq5cPbK4S6JgkDakbaJk","Koo6td3nw4YcorjR8C72YXgklR",6050477,616,FALSE,"resistance_to_framing_trial","5",10646,"a1_1","5.0","2.0"
"Scbpoqeq5cPbK4S6JgkDakbaJk","Koo6td3nw4YcorjR8C72YXgklR",6058347,617,FALSE,"resistance_to_framing_trial","6",7868,"a1_2","6.0","2.0"
"Scbpoqeq5cPbK4S6JgkDakbaJk","Koo6td3nw4YcorjR8C72YXgklR",6077749,618,FALSE,"resistance_to_framing_trial","5",19401,"a1_3","5.0","2.0"
"Scbpoqeq5cPbK4S6JgkDakbaJk","Koo6td3nw4YcorjR8C72YXgklR",6093365,619,FALSE,"resistance_to_framing_trial","2",15614,"a1_4","2.0","2.0"
"Scbpoqeq5cPbK4S6JgkDakbaJk","Koo6td3nw4YcorjR8C72YXgklR",6101461,620,FALSE,"resistance_to_framing_trial","5",8094,"a1_5","5.0","2.0"
"Scbpoqeq5cPbK4S6JgkDakbaJk","Koo6td3nw4YcorjR8C72YXgklR",6117945,621,FALSE,"resistance_to_framing_trial","5",16482,"a1_6","5.0","2.0"
"Scbpoqeq5cPbK4S6JgkDakbaJk","Koo6td3nw4YcorjR8C72YXgklR",6125901,622,FALSE,"resistance_to_framing_trial","3",7954,"a1_7","3.0","2.0"
"Scbpoqeq5cPbK4S6JgkDakbaJk","ZLt8IUQVWCDQgr7yS8QppZsrn3",10236785,1159,FALSE,"resistance_to_framing_trial","5",11269,"rc2_1","5.0","2.0"
"Scbpoqeq5cPbK4S6JgkDakbaJk","ZLt8IUQVWCDQgr7yS8QppZsrn3",10246042,1160,FALSE,"resistance_to_framing_trial","2",9254,"rc2_2","2.0","2.0"
"Scbpoqeq5cPbK4S6JgkDakbaJk","ZLt8IUQVWCDQgr7yS8QppZsrn3",10265621,1161,FALSE,"resistance_to_framing_trial","2",19578,"rc2_3","2.0","2.0"
"Scbpoqeq5cPbK4S6JgkDakbaJk","ZLt8IUQVWCDQgr7yS8QppZsrn3",10274733,1162,FALSE,"resistance_to_framing_trial","1",9110,"rc2_4","1.0","2.0"
"Scbpoqeq5cPbK4S6JgkDakbaJk","ZLt8IUQVWCDQgr7yS8QppZsrn3",10289242,1163,FALSE,"resistance_to_framing_trial","5",14506,"rc2_5","5.0","2.0"
"Scbpoqeq5cPbK4S6JgkDakbaJk","ZLt8IUQVWCDQgr7yS8QppZsrn3",10310466,1164,FALSE,"resistance_to_framing_trial","5",21222,"rc2_6","5.0","2.0"
"Scbpoqeq5cPbK4S6JgkDakbaJk","ZLt8IUQVWCDQgr7yS8QppZsrn3",10326521,1165,FALSE,"resistance_to_framing_trial","3",16054,"rc2_7","3.0","2.0"
"Scbpoqeq5cPbK4S6JgkDakbaJk","3CvglESnZloYBuDalKTsUHG3Ax",13769737,1326,FALSE,"admc_dr_trial","{'dr1': ['C']}",17548,"dr1","1.0","2.0"
"Scbpoqeq5cPbK4S6JgkDakbaJk","3CvglESnZloYBuDalKTsUHG3Ax",13781955,1327,FALSE,"admc_dr_trial","{'dr2': ['D']}",12211,"dr2","1.0","2.0"
"Scbpoqeq5cPbK4S6JgkDakbaJk","3CvglESnZloYBuDalKTsUHG3Ax",13793114,1328,FALSE,"admc_dr_trial","{'dr3': ['D']}",11155,"dr3","0.0","2.0"
"Scbpoqeq5cPbK4S6JgkDakbaJk","3CvglESnZloYBuDalKTsUHG3Ax",13802286,1329,FALSE,"admc_dr_trial","{'dr4': ['None']}",9166,"dr4","1.0","2.0"
"Scbpoqeq5cPbK4S6JgkDakbaJk","3CvglESnZloYBuDalKTsUHG3Ax",13821923,1330,FALSE,"admc_dr_trial","{'dr5': ['C']}",19632,"dr5","0.0","2.0"
"Scbpoqeq5cPbK4S6JgkDakbaJk","3CvglESnZloYBuDalKTsUHG3Ax",13849448,1331,FALSE,"admc_dr_trial","{'dr6': ['E']}",27519,"dr6","1.0","2.0"
"Scbpoqeq5cPbK4S6JgkDakbaJk","3CvglESnZloYBuDalKTsUHG3Ax",13877127,1332,FALSE,"admc_dr_trial","{'dr7': ['E']}",27672,"dr7","1.0","2.0"
"Scbpoqeq5cPbK4S6JgkDakbaJk","3CvglESnZloYBuDalKTsUHG3Ax",13920626,1333,FALSE,"admc_dr_trial","{'dr8': ['A', 'None']}",43494,"dr8","1.0","2.0"
"Scbpoqeq5cPbK4S6JgkDakbaJk","3CvglESnZloYBuDalKTsUHG3Ax",13938726,1334,FALSE,"admc_dr_trial","{'dr9': ['A', 'D', 'E']}",18093,"dr9","3.0","2.0"
"Scbpoqeq5cPbK4S6JgkDakbaJk","3CvglESnZloYBuDalKTsUHG3Ax",13962786,1335,FALSE,"admc_dr_trial","{'dr10': ['A', 'D', 'E']}",24054,"dr10","2.0","2.0"
"AhL3JJPmYLUWNDGh3AWGODXbd8","oFcvbAfYj70UUrnvSynVVpGKPB",415869,20,FALSE,"resistance_to_framing_trial","2",19580,"a2_1","2","3.0"
"AhL3JJPmYLUWNDGh3AWGODXbd8","oFcvbAfYj70UUrnvSynVVpGKPB",427400,21,FALSE,"resistance_to_framing_trial","5",11529,"a2_2","5","3.0"
"AhL3JJPmYLUWNDGh3AWGODXbd8","oFcvbAfYj70UUrnvSynVVpGKPB",437122,22,FALSE,"resistance_to_framing_trial","4",9720,"a2_3","4","3.0"
"AhL3JJPmYLUWNDGh3AWGODXbd8","oFcvbAfYj70UUrnvSynVVpGKPB",452192,23,FALSE,"resistance_to_framing_trial","6",15069,"a2_4","6","3.0"
"AhL3JJPmYLUWNDGh3AWGODXbd8","oFcvbAfYj70UUrnvSynVVpGKPB",462266,24,FALSE,"resistance_to_framing_trial","6",10072,"a2_5","6","3.0"
"AhL3JJPmYLUWNDGh3AWGODXbd8","oFcvbAfYj70UUrnvSynVVpGKPB",490914,25,FALSE,"resistance_to_framing_trial","4",28647,"a2_6","4","3.0"
"AhL3JJPmYLUWNDGh3AWGODXbd8","oFcvbAfYj70UUrnvSynVVpGKPB",498318,26,FALSE,"resistance_to_framing_trial","6",7402,"a2_7","6","3.0"
"AhL3JJPmYLUWNDGh3AWGODXbd8","oFcvbAfYj70UUrnvSynVVpGKPB",572543,33,FALSE,"admc_rp_a_trial","{'rp_a1': '54', 'rp_a2': '79', 'rp_a3': '50', 'rp_a4': '49', 'rp_a5': '0', 'rp_a6': '19', 'rp_a7': '14', 'rp_a8': '100', 'rp_a9': '100', 'rp_a10': '65'}",67914,"['rp_a1', 'rp_a2', 'rp_a3', 'rp_a4', 'rp_a5', 'rp_a6', 'rp_a7', 'rp_a8', 'rp_a9', 'rp_a10']","['54', '79', '50', '49', '0', '19', '14', '100', '100', '65']","3.0"
"AhL3JJPmYLUWNDGh3AWGODXbd8","oFcvbAfYj70UUrnvSynVVpGKPB",623805,34,FALSE,"admc_rp_b_trial","{'rp_b1': '70', 'rp_b2': '90', 'rp_b3': '50', 'rp_b4': '34', 'rp_b5': '3', 'rp_b6': '25', 'rp_b7': '19', 'rp_b8': '95', 'rp_b9': '100', 'rp_b10': '75'}",51258,"['rp_b1', 'rp_b2', 'rp_b3', 'rp_b4', 'rp_b5', 'rp_b6', 'rp_b7', 'rp_b8', 'rp_b9', 'rp_b10']","['70', '90', '50', '34', '3', '25', '19', '95', '100', '75']","3.0"
"AhL3JJPmYLUWNDGh3AWGODXbd8","oFcvbAfYj70UUrnvSynVVpGKPB",3237226,492,FALSE,"resistance_to_framing_trial","1",7316,"rc1_1","1","3.0"
"AhL3JJPmYLUWNDGh3AWGODXbd8","oFcvbAfYj70UUrnvSynVVpGKPB",3244566,493,FALSE,"resistance_to_framing_trial","1",7338,"rc1_2","1","3.0"
"AhL3JJPmYLUWNDGh3AWGODXbd8","oFcvbAfYj70UUrnvSynVVpGKPB",3257860,494,FALSE,"resistance_to_framing_trial","1",13292,"rc1_3","1","3.0"
"AhL3JJPmYLUWNDGh3AWGODXbd8","oFcvbAfYj70UUrnvSynVVpGKPB",3265696,495,FALSE,"resistance_to_framing_trial","2",7834,"rc1_4","2","3.0"
"AhL3JJPmYLUWNDGh3AWGODXbd8","oFcvbAfYj70UUrnvSynVVpGKPB",3282862,496,FALSE,"resistance_to_framing_trial","4",17164,"rc1_5","4","3.0"
"AhL3JJPmYLUWNDGh3AWGODXbd8","oFcvbAfYj70UUrnvSynVVpGKPB",3292551,497,FALSE,"resistance_to_framing_trial","1",9687,"rc1_6","1","3.0"
"AhL3JJPmYLUWNDGh3AWGODXbd8","oFcvbAfYj70UUrnvSynVVpGKPB",3301052,498,FALSE,"resistance_to_framing_trial","4",8499,"rc1_7","4","3.0"
"WcBcRLmg6ssxWYI6H0fLQ0gqDu","cgYsN0bngGenxrdVlPOIiGCRnS",1270013,180,FALSE,"resistance_to_framing_trial","2",25305,"a2_1","2","2.0"
"WcBcRLmg6ssxWYI6H0fLQ0gqDu","cgYsN0bngGenxrdVlPOIiGCRnS",1282508,181,FALSE,"resistance_to_framing_trial","5",12494,"a2_2","5","2.0"
"WcBcRLmg6ssxWYI6H0fLQ0gqDu","cgYsN0bngGenxrdVlPOIiGCRnS",1291684,182,FALSE,"resistance_to_framing_trial","4",9175,"a2_3","4","2.0"
"WcBcRLmg6ssxWYI6H0fLQ0gqDu","cgYsN0bngGenxrdVlPOIiGCRnS",1302133,183,FALSE,"resistance_to_framing_trial","4",10448,"a2_4","4","2.0"
"WcBcRLmg6ssxWYI6H0fLQ0gqDu","cgYsN0bngGenxrdVlPOIiGCRnS",1318383,184,FALSE,"resistance_to_framing_trial","5",16249,"a2_5","5","2.0"
"WcBcRLmg6ssxWYI6H0fLQ0gqDu","cgYsN0bngGenxrdVlPOIiGCRnS",1333604,185,FALSE,"resistance_to_framing_trial","2",15221,"a2_6","2","2.0"
"WcBcRLmg6ssxWYI6H0fLQ0gqDu","cgYsN0bngGenxrdVlPOIiGCRnS",1343649,186,FALSE,"resistance_to_framing_trial","5",10044,"a2_7","5","2.0"
"WcBcRLmg6ssxWYI6H0fLQ0gqDu","cgYsN0bngGenxrdVlPOIiGCRnS",1749649,201,FALSE,"resistance_to_framing_trial","1",13284,"rc1_1","1","2.0"
"WcBcRLmg6ssxWYI6H0fLQ0gqDu","cgYsN0bngGenxrdVlPOIiGCRnS",1763988,202,FALSE,"resistance_to_framing_trial","3",14338,"rc1_2","3","2.0"
"WcBcRLmg6ssxWYI6H0fLQ0gqDu","cgYsN0bngGenxrdVlPOIiGCRnS",1783471,203,FALSE,"resistance_to_framing_trial","2",19482,"rc1_3","2","2.0"
"WcBcRLmg6ssxWYI6H0fLQ0gqDu","cgYsN0bngGenxrdVlPOIiGCRnS",1796954,204,FALSE,"resistance_to_framing_trial","2",13482,"rc1_4","2","2.0"
"WcBcRLmg6ssxWYI6H0fLQ0gqDu","cgYsN0bngGenxrdVlPOIiGCRnS",1819005,205,FALSE,"resistance_to_framing_trial","3",22050,"rc1_5","3","2.0"
"WcBcRLmg6ssxWYI6H0fLQ0gqDu","cgYsN0bngGenxrdVlPOIiGCRnS",1835531,206,FALSE,"resistance_to_framing_trial","1",16525,"rc1_6","1","2.0"
"WcBcRLmg6ssxWYI6H0fLQ0gqDu","cgYsN0bngGenxrdVlPOIiGCRnS",1855930,207,FALSE,"resistance_to_framing_trial","2",20398,"rc1_7","2","2.0"
"WcBcRLmg6ssxWYI6H0fLQ0gqDu","cgYsN0bngGenxrdVlPOIiGCRnS",1914251,214,FALSE,"admc_rp_a_trial","{'rp_a1': '10', 'rp_a2': '7', 'rp_a3': '3', 'rp_a4': '3', 'rp_a5': '1', 'rp_a6': '1', 'rp_a7': '3', 'rp_a8': '98', 'rp_a9': '100', 'rp_a10': '90'}",50675,"['rp_a1', 'rp_a2', 'rp_a3', 'rp_a4', 'rp_a5', 'rp_a6', 'rp_a7', 'rp_a8', 'rp_a9', 'rp_a10']","['10', '7', '3', '3', '1', '1', '3', '98', '100', '90']","2.0"
"WcBcRLmg6ssxWYI6H0fLQ0gqDu","cgYsN0bngGenxrdVlPOIiGCRnS",1953365,215,FALSE,"admc_rp_b_trial","{'rp_b1': '11', 'rp_b2': '7', 'rp_b3': '3', 'rp_b4': '4', 'rp_b5': '89', 'rp_b6': '1', 'rp_b7': '2', 'rp_b8': '10', 'rp_b9': '100', 'rp_b10': '84'}",39113,"['rp_b1', 'rp_b2', 'rp_b3', 'rp_b4', 'rp_b5', 'rp_b6', 'rp_b7', 'rp_b8', 'rp_b9', 'rp_b10']","['11', '7', '3', '4', '89', '1', '2', '10', '100', '84']","2.0"
"eFe95CeeQAgOoze8mvOzVQ4Hv6","VjYssdBmru7tOalICnyFgzyX5R",239858,78,FALSE,"resistance_to_framing_trial","3",25360,"rc2_1","3","3.0"
"eFe95CeeQAgOoze8mvOzVQ4Hv6","VjYssdBmru7tOalICnyFgzyX5R",248592,79,FALSE,"resistance_to_framing_trial","3",8733,"rc2_2","3","3.0"
"eFe95CeeQAgOoze8mvOzVQ4Hv6","VjYssdBmru7tOalICnyFgzyX5R",256851,80,FALSE,"resistance_to_framing_trial","2",8258,"rc2_3","2","3.0"
"eFe95CeeQAgOoze8mvOzVQ4Hv6","VjYssdBmru7tOalICnyFgzyX5R",264533,81,FALSE,"resistance_to_framing_trial","2",7681,"rc2_4","2","3.0"
"eFe95CeeQAgOoze8mvOzVQ4Hv6","VjYssdBmru7tOalICnyFgzyX5R",276214,82,FALSE,"resistance_to_framing_trial","4",11681,"rc2_5","4","3.0"
"eFe95CeeQAgOoze8mvOzVQ4Hv6","VjYssdBmru7tOalICnyFgzyX5R",293021,83,FALSE,"resistance_to_framing_trial","4",16805,"rc2_6","4","3.0"
"eFe95CeeQAgOoze8mvOzVQ4Hv6","VjYssdBmru7tOalICnyFgzyX5R",303699,84,FALSE,"resistance_to_framing_trial","3",10677,"rc2_7","3","3.0"
"eFe95CeeQAgOoze8mvOzVQ4Hv6","VjYssdBmru7tOalICnyFgzyX5R",491855,99,FALSE,"admc_dr_trial","{'dr1': ['C']}",12800,"dr1","1","3.0"
"eFe95CeeQAgOoze8mvOzVQ4Hv6","VjYssdBmru7tOalICnyFgzyX5R",512698,100,FALSE,"admc_dr_trial","{'dr2': ['D']}",20840,"dr2","1","3.0"
"eFe95CeeQAgOoze8mvOzVQ4Hv6","VjYssdBmru7tOalICnyFgzyX5R",531542,101,FALSE,"admc_dr_trial","{'dr3': ['C']}",18840,"dr3","1","3.0"
"eFe95CeeQAgOoze8mvOzVQ4Hv6","VjYssdBmru7tOalICnyFgzyX5R",541896,102,FALSE,"admc_dr_trial","{'dr4': ['None']}",10351,"dr4","1","3.0"
"eFe95CeeQAgOoze8mvOzVQ4Hv6","VjYssdBmru7tOalICnyFgzyX5R",561790,103,FALSE,"admc_dr_trial","{'dr5': ['A']}",19890,"dr5","1","3.0"
"eFe95CeeQAgOoze8mvOzVQ4Hv6","VjYssdBmru7tOalICnyFgzyX5R",587698,104,FALSE,"admc_dr_trial","{'dr6': ['E']}",25904,"dr6","1","3.0"
"eFe95CeeQAgOoze8mvOzVQ4Hv6","VjYssdBmru7tOalICnyFgzyX5R",608939,105,FALSE,"admc_dr_trial","{'dr7': ['E']}",21238,"dr7","1","3.0"
"eFe95CeeQAgOoze8mvOzVQ4Hv6","VjYssdBmru7tOalICnyFgzyX5R",627080,106,FALSE,"admc_dr_trial","{'dr8': ['A', 'C']}",18138,"dr8","2","3.0"
"eFe95CeeQAgOoze8mvOzVQ4Hv6","VjYssdBmru7tOalICnyFgzyX5R",646910,107,FALSE,"admc_dr_trial","{'dr9': ['A', 'D', 'E']}",19826,"dr9","3","3.0"
"eFe95CeeQAgOoze8mvOzVQ4Hv6","VjYssdBmru7tOalICnyFgzyX5R",692912,108,TRUE,"admc_dr_trial","{'dr10': ['C', 'D']}",45998,"dr10","2","3.0"
"eFe95CeeQAgOoze8mvOzVQ4Hv6","VjYssdBmru7tOalICnyFgzyX5R",4692450,1209,FALSE,"resistance_to_framing_trial","2",15860,"a1_1","2","3.0"
"eFe95CeeQAgOoze8mvOzVQ4Hv6","VjYssdBmru7tOalICnyFgzyX5R",4699009,1210,FALSE,"resistance_to_framing_trial","5",6558,"a1_2","5","3.0"
"eFe95CeeQAgOoze8mvOzVQ4Hv6","VjYssdBmru7tOalICnyFgzyX5R",4707697,1211,FALSE,"resistance_to_framing_trial","3",8687,"a1_3","3","3.0"
"eFe95CeeQAgOoze8mvOzVQ4Hv6","VjYssdBmru7tOalICnyFgzyX5R",4724660,1212,FALSE,"resistance_to_framing_trial","4",16964,"a1_4","4","3.0"
"eFe95CeeQAgOoze8mvOzVQ4Hv6","VjYssdBmru7tOalICnyFgzyX5R",4737349,1213,FALSE,"resistance_to_framing_trial","4",12688,"a1_5","4","3.0"
"eFe95CeeQAgOoze8mvOzVQ4Hv6","VjYssdBmru7tOalICnyFgzyX5R",4743150,1214,FALSE,"resistance_to_framing_trial","5",5800,"a1_6","5","3.0"
"eFe95CeeQAgOoze8mvOzVQ4Hv6","VjYssdBmru7tOalICnyFgzyX5R",4749181,1215,FALSE,"resistance_to_framing_trial","4",6030,"a1_7","4","3.0"
"Xf81QLy2eIbZn8pf9DdS69Ig8l","ix8HHiKWwpJ4ExeaHa5Z0uvyAO",1933548,1038,FALSE,"resistance_to_framing_trial","2",22131,"a2_1","2","2.0"
"Xf81QLy2eIbZn8pf9DdS69Ig8l","ix8HHiKWwpJ4ExeaHa5Z0uvyAO",1945541,1039,FALSE,"resistance_to_framing_trial","4",11987,"a2_2","4","2.0"
"Xf81QLy2eIbZn8pf9DdS69Ig8l","ix8HHiKWwpJ4ExeaHa5Z0uvyAO",1956937,1040,FALSE,"resistance_to_framing_trial","4",11390,"a2_3","4","2.0"
"Xf81QLy2eIbZn8pf9DdS69Ig8l","ix8HHiKWwpJ4ExeaHa5Z0uvyAO",1966262,1041,FALSE,"resistance_to_framing_trial","6",9319,"a2_4","6","2.0"
"Xf81QLy2eIbZn8pf9DdS69Ig8l","ix8HHiKWwpJ4ExeaHa5Z0uvyAO",1981054,1042,FALSE,"resistance_to_framing_trial","4",14786,"a2_5","4","2.0"
"Xf81QLy2eIbZn8pf9DdS69Ig8l","ix8HHiKWwpJ4ExeaHa5Z0uvyAO",1993441,1043,FALSE,"resistance_to_framing_trial","4",12381,"a2_6","4","2.0"
"Xf81QLy2eIbZn8pf9DdS69Ig8l","ix8HHiKWwpJ4ExeaHa5Z0uvyAO",2005028,1044,FALSE,"resistance_to_framing_trial","4",11581,"a2_7","4","2.0"
"Xf81QLy2eIbZn8pf9DdS69Ig8l","ix8HHiKWwpJ4ExeaHa5Z0uvyAO",2797476,1189,FALSE,"admc_rp_a_trial","{'rp_a1': '49', 'rp_a2': '89', 'rp_a3': '19', 'rp_a4': '50', 'rp_a5': '2', 'rp_a6': '2', 'rp_a7': '5', 'rp_a8': '99', 'rp_a9': '100', 'rp_a10': '79'}",51270,"['rp_a1', 'rp_a2', 'rp_a3', 'rp_a4', 'rp_a5', 'rp_a6', 'rp_a7', 'rp_a8', 'rp_a9', 'rp_a10']","['49', '89', '19', '50', '2', '2', '5', '99', '100', '79']","2.0"
"Xf81QLy2eIbZn8pf9DdS69Ig8l","ix8HHiKWwpJ4ExeaHa5Z0uvyAO",2842271,1190,FALSE,"admc_rp_b_trial","{'rp_b1': '10', 'rp_b2': '93', 'rp_b3': '4', 'rp_b4': '19', 'rp_b5': '3', 'rp_b6': '2', 'rp_b7': '8', 'rp_b8': '99', 'rp_b9': '100', 'rp_b10': '80'}",44785,"['rp_b1', 'rp_b2', 'rp_b3', 'rp_b4', 'rp_b5', 'rp_b6', 'rp_b7', 'rp_b8', 'rp_b9', 'rp_b10']","['10', '93', '4', '19', '3', '2', '8', '99', '100', '80']","2.0"
"Xf81QLy2eIbZn8pf9DdS69Ig8l","ix8HHiKWwpJ4ExeaHa5Z0uvyAO",2866988,1197,FALSE,"resistance_to_framing_trial","2",19862,"rc1_1","2","2.0"
"Xf81QLy2eIbZn8pf9DdS69Ig8l","ix8HHiKWwpJ4ExeaHa5Z0uvyAO",2883949,1198,FALSE,"resistance_to_framing_trial","3",16956,"rc1_2","3","2.0"
"Xf81QLy2eIbZn8pf9DdS69Ig8l","ix8HHiKWwpJ4ExeaHa5Z0uvyAO",2901763,1199,FALSE,"resistance_to_framing_trial","2",17808,"rc1_3","2","2.0"
"Xf81QLy2eIbZn8pf9DdS69Ig8l","ix8HHiKWwpJ4ExeaHa5Z0uvyAO",2916462,1200,FALSE,"resistance_to_framing_trial","2",14693,"rc1_4","2","2.0"
"Xf81QLy2eIbZn8pf9DdS69Ig8l","ix8HHiKWwpJ4ExeaHa5Z0uvyAO",2940170,1201,FALSE,"resistance_to_framing_trial","2",23701,"rc1_5","2","2.0"
"Xf81QLy2eIbZn8pf9DdS69Ig8l","ix8HHiKWwpJ4ExeaHa5Z0uvyAO",2953276,1202,FALSE,"resistance_to_framing_trial","3",13098,"rc1_6","3","2.0"
"Xf81QLy2eIbZn8pf9DdS69Ig8l","ix8HHiKWwpJ4ExeaHa5Z0uvyAO",2972396,1203,FALSE,"resistance_to_framing_trial","4",19115,"rc1_7","4","2.0"
"bArB5qhI33ayqzPdBGfvyVkjoA","XtClsJspMTdNEi1tNhwFIm9Eme",510724,84,FALSE,"resistance_to_framing_trial","2",17829,"a1_1","2.0","3.0"
"bArB5qhI33ayqzPdBGfvyVkjoA","XtClsJspMTdNEi1tNhwFIm9Eme",518196,85,FALSE,"resistance_to_framing_trial","5",7465,"a1_2","5.0","3.0"
"bArB5qhI33ayqzPdBGfvyVkjoA","XtClsJspMTdNEi1tNhwFIm9Eme",532165,86,FALSE,"resistance_to_framing_trial","5",13960,"a1_3","5.0","3.0"
"bArB5qhI33ayqzPdBGfvyVkjoA","XtClsJspMTdNEi1tNhwFIm9Eme",539071,87,FALSE,"resistance_to_framing_trial","2",6893,"a1_4","2.0","3.0"
"bArB5qhI33ayqzPdBGfvyVkjoA","XtClsJspMTdNEi1tNhwFIm9Eme",546333,88,FALSE,"resistance_to_framing_trial","5",7257,"a1_5","5.0","3.0"
"bArB5qhI33ayqzPdBGfvyVkjoA","XtClsJspMTdNEi1tNhwFIm9Eme",555334,89,FALSE,"resistance_to_framing_trial","4",8994,"a1_6","4.0","3.0"
"bArB5qhI33ayqzPdBGfvyVkjoA","XtClsJspMTdNEi1tNhwFIm9Eme",563975,90,FALSE,"resistance_to_framing_trial","4",8635,"a1_7","4.0","3.0"
"bArB5qhI33ayqzPdBGfvyVkjoA","XtClsJspMTdNEi1tNhwFIm9Eme",2467009,1079,FALSE,"admc_dr_trial","{'dr1': ['C']}",17172,"dr1","1.0","3.0"
"bArB5qhI33ayqzPdBGfvyVkjoA","XtClsJspMTdNEi1tNhwFIm9Eme",2491308,1080,FALSE,"admc_dr_trial","{'dr2': ['D']}",24276,"dr2","1.0","3.0"
"bArB5qhI33ayqzPdBGfvyVkjoA","XtClsJspMTdNEi1tNhwFIm9Eme",2509124,1081,FALSE,"admc_dr_trial","{'dr3': ['C']}",17788,"dr3","1.0","3.0"
"bArB5qhI33ayqzPdBGfvyVkjoA","XtClsJspMTdNEi1tNhwFIm9Eme",2521264,1082,FALSE,"admc_dr_trial","{'dr4': ['None']}",12114,"dr4","1.0","3.0"
"bArB5qhI33ayqzPdBGfvyVkjoA","XtClsJspMTdNEi1tNhwFIm9Eme",2540303,1083,FALSE,"admc_dr_trial","{'dr5': ['A']}",19014,"dr5","1.0","3.0"
"bArB5qhI33ayqzPdBGfvyVkjoA","XtClsJspMTdNEi1tNhwFIm9Eme",2558752,1084,FALSE,"admc_dr_trial","{'dr6': ['E']}",18423,"dr6","1.0","3.0"
"bArB5qhI33ayqzPdBGfvyVkjoA","XtClsJspMTdNEi1tNhwFIm9Eme",2580509,1085,FALSE,"admc_dr_trial","{'dr7': ['E']}",21732,"dr7","1.0","3.0"
"bArB5qhI33ayqzPdBGfvyVkjoA","XtClsJspMTdNEi1tNhwFIm9Eme",2599685,1086,FALSE,"admc_dr_trial","{'dr8': ['A', 'C']}",19150,"dr8","2.0","3.0"
"bArB5qhI33ayqzPdBGfvyVkjoA","XtClsJspMTdNEi1tNhwFIm9Eme",2636526,1087,FALSE,"admc_dr_trial","{'dr9': ['A', 'D', 'E']}",36815,"dr9","3.0","3.0"
"bArB5qhI33ayqzPdBGfvyVkjoA","XtClsJspMTdNEi1tNhwFIm9Eme",2679235,1088,FALSE,"admc_dr_trial","{'dr10': ['C', 'D', 'None']}",42674,"dr10","2.0","3.0"
"bArB5qhI33ayqzPdBGfvyVkjoA","XtClsJspMTdNEi1tNhwFIm9Eme",2723844,1096,FALSE,"resistance_to_framing_trial","5",21301,"rc2_1","5.0","3.0"
"bArB5qhI33ayqzPdBGfvyVkjoA","XtClsJspMTdNEi1tNhwFIm9Eme",2759018,1097,FALSE,"resistance_to_framing_trial","3",35168,"rc2_2","3.0","3.0"
"bArB5qhI33ayqzPdBGfvyVkjoA","XtClsJspMTdNEi1tNhwFIm9Eme",2768832,1098,FALSE,"resistance_to_framing_trial","3",9810,"rc2_3","3.0","3.0"
"bArB5qhI33ayqzPdBGfvyVkjoA","XtClsJspMTdNEi1tNhwFIm9Eme",2785424,1099,FALSE,"resistance_to_framing_trial","3",16586,"rc2_4","3.0","3.0"
"bArB5qhI33ayqzPdBGfvyVkjoA","XtClsJspMTdNEi1tNhwFIm9Eme",2801137,1100,FALSE,"resistance_to_framing_trial","4",15707,"rc2_5","4.0","3.0"
"bArB5qhI33ayqzPdBGfvyVkjoA","XtClsJspMTdNEi1tNhwFIm9Eme",2824934,1101,FALSE,"resistance_to_framing_trial","3",23790,"rc2_6","3.0","3.0"
"bArB5qhI33ayqzPdBGfvyVkjoA","XtClsJspMTdNEi1tNhwFIm9Eme",2851387,1102,FALSE,"resistance_to_framing_trial","3",26446,"rc2_7","3.0","3.0"
"MEb7oXeDnmtQ0bC3VQKEpwBH12","9NAozSzIlnTayeZyZgRhswlCbv",671176,93,FALSE,"admc_dr_trial","{'dr1': ['C']}",19989,"dr1","1.0","2.0"
"MEb7oXeDnmtQ0bC3VQKEpwBH12","9NAozSzIlnTayeZyZgRhswlCbv",703683,94,FALSE,"admc_dr_trial","{'dr2': ['D']}",32494,"dr2","1.0","2.0"
"MEb7oXeDnmtQ0bC3VQKEpwBH12","9NAozSzIlnTayeZyZgRhswlCbv",731153,95,FALSE,"admc_dr_trial","{'dr3': ['C']}",27456,"dr3","1.0","2.0"
"MEb7oXeDnmtQ0bC3VQKEpwBH12","9NAozSzIlnTayeZyZgRhswlCbv",740865,96,FALSE,"admc_dr_trial","{'dr4': ['C']}",9703,"dr4","0.0","2.0"
"MEb7oXeDnmtQ0bC3VQKEpwBH12","9NAozSzIlnTayeZyZgRhswlCbv",776228,97,FALSE,"admc_dr_trial","{'dr5': ['A']}",35354,"dr5","1.0","2.0"
"MEb7oXeDnmtQ0bC3VQKEpwBH12","9NAozSzIlnTayeZyZgRhswlCbv",795568,98,FALSE,"admc_dr_trial","{'dr6': ['E']}",19328,"dr6","1.0","2.0"
"MEb7oXeDnmtQ0bC3VQKEpwBH12","9NAozSzIlnTayeZyZgRhswlCbv",819395,99,FALSE,"admc_dr_trial","{'dr7': ['C']}",23816,"dr7","0.0","2.0"
"MEb7oXeDnmtQ0bC3VQKEpwBH12","9NAozSzIlnTayeZyZgRhswlCbv",865410,100,TRUE,"admc_dr_trial","{'dr8': ['A', 'C']}",46005,"dr8","2.0","2.0"
"MEb7oXeDnmtQ0bC3VQKEpwBH12","9NAozSzIlnTayeZyZgRhswlCbv",910199,101,FALSE,"admc_dr_trial","{'dr9': ['A', 'D', 'E']}",44777,"dr9","3.0","2.0"
"MEb7oXeDnmtQ0bC3VQKEpwBH12","9NAozSzIlnTayeZyZgRhswlCbv",935090,102,FALSE,"admc_dr_trial","{'dr10': ['B', 'D', 'E']}",24879,"dr10","2.0","2.0"
"MEb7oXeDnmtQ0bC3VQKEpwBH12","9NAozSzIlnTayeZyZgRhswlCbv",1510753,686,FALSE,"resistance_to_framing_trial","6",18229,"rc2_1","6.0","2.0"
"MEb7oXeDnmtQ0bC3VQKEpwBH12","9NAozSzIlnTayeZyZgRhswlCbv",1526046,687,FALSE,"resistance_to_framing_trial","1",15290,"rc2_2","1.0","2.0"
"MEb7oXeDnmtQ0bC3VQKEpwBH12","9NAozSzIlnTayeZyZgRhswlCbv",1543477,688,FALSE,"resistance_to_framing_trial","2",17429,"rc2_3","2.0","2.0"
"MEb7oXeDnmtQ0bC3VQKEpwBH12","9NAozSzIlnTayeZyZgRhswlCbv",1555330,689,FALSE,"resistance_to_framing_trial","2",11851,"rc2_4","2.0","2.0"
"MEb7oXeDnmtQ0bC3VQKEpwBH12","9NAozSzIlnTayeZyZgRhswlCbv",1567944,690,FALSE,"resistance_to_framing_trial","5",12612,"rc2_5","5.0","2.0"
"MEb7oXeDnmtQ0bC3VQKEpwBH12","9NAozSzIlnTayeZyZgRhswlCbv",1586655,691,FALSE,"resistance_to_framing_trial","1",18709,"rc2_6","1.0","2.0"
"MEb7oXeDnmtQ0bC3VQKEpwBH12","9NAozSzIlnTayeZyZgRhswlCbv",1602050,692,FALSE,"resistance_to_framing_trial","1",15393,"rc2_7","1.0","2.0"
"MEb7oXeDnmtQ0bC3VQKEpwBH12","9NAozSzIlnTayeZyZgRhswlCbv",1790933,711,FALSE,"resistance_to_framing_trial","1",13172,"a1_1","1.0","2.0"
"MEb7oXeDnmtQ0bC3VQKEpwBH12","9NAozSzIlnTayeZyZgRhswlCbv",1805794,712,FALSE,"resistance_to_framing_trial","5",14859,"a1_2","5.0","2.0"
"MEb7oXeDnmtQ0bC3VQKEpwBH12","9NAozSzIlnTayeZyZgRhswlCbv",1821202,713,FALSE,"resistance_to_framing_trial","6",15405,"a1_3","6.0","2.0"
"MEb7oXeDnmtQ0bC3VQKEpwBH12","9NAozSzIlnTayeZyZgRhswlCbv",1847333,714,FALSE,"resistance_to_framing_trial","3",26129,"a1_4","3.0","2.0"
"MEb7oXeDnmtQ0bC3VQKEpwBH12","9NAozSzIlnTayeZyZgRhswlCbv",1859093,715,FALSE,"resistance_to_framing_trial","4",11758,"a1_5","4.0","2.0"
"MEb7oXeDnmtQ0bC3VQKEpwBH12","9NAozSzIlnTayeZyZgRhswlCbv",1874247,716,FALSE,"resistance_to_framing_trial","4",15153,"a1_6","4.0","2.0"
"MEb7oXeDnmtQ0bC3VQKEpwBH12","9NAozSzIlnTayeZyZgRhswlCbv",1888320,717,FALSE,"resistance_to_framing_trial","5",14071,"a1_7","5.0","2.0"
"1eFmEaNYZk9nhIejZ5o551waDm","sfPWC1NRcOtweXXpCKLRyW75zO",97084,12,FALSE,"admc_rp_a_trial","{'rp_a1': '29', 'rp_a2': '9', 'rp_a3': '9', 'rp_a4': '40', 'rp_a5': '40', 'rp_a6': '4', 'rp_a7': '30', 'rp_a8': '39', 'rp_a9': '7', 'rp_a10': '20'}",64723,"['rp_a1', 'rp_a2', 'rp_a3', 'rp_a4', 'rp_a5', 'rp_a6', 'rp_a7', 'rp_a8', 'rp_a9', 'rp_a10']","['29', '9', '9', '40', '40', '4', '30', '39', '7', '20']","3.0"
"1eFmEaNYZk9nhIejZ5o551waDm","sfPWC1NRcOtweXXpCKLRyW75zO",147417,13,FALSE,"admc_rp_b_trial","{'rp_b1': '50', 'rp_b2': '29', 'rp_b3': '17', 'rp_b4': '44', 'rp_b5': '59', 'rp_b6': '4', 'rp_b7': '44', 'rp_b8': '49', 'rp_b9': '35', 'rp_b10': '35'}",50330,"['rp_b1', 'rp_b2', 'rp_b3', 'rp_b4', 'rp_b5', 'rp_b6', 'rp_b7', 'rp_b8', 'rp_b9', 'rp_b10']","['50', '29', '17', '44', '59', '4', '44', '49', '35', '35']","3.0"
"1eFmEaNYZk9nhIejZ5o551waDm","sfPWC1NRcOtweXXpCKLRyW75zO",2383205,1127,FALSE,"resistance_to_framing_trial","3",21580,"a2_1","3","3.0"
"1eFmEaNYZk9nhIejZ5o551waDm","sfPWC1NRcOtweXXpCKLRyW75zO",2394127,1128,FALSE,"resistance_to_framing_trial","5",10921,"a2_2","5","3.0"
"1eFmEaNYZk9nhIejZ5o551waDm","sfPWC1NRcOtweXXpCKLRyW75zO",2405759,1129,FALSE,"resistance_to_framing_trial","5",11630,"a2_3","5","3.0"
"1eFmEaNYZk9nhIejZ5o551waDm","sfPWC1NRcOtweXXpCKLRyW75zO",2417827,1130,FALSE,"resistance_to_framing_trial","3",12067,"a2_4","3","3.0"
"1eFmEaNYZk9nhIejZ5o551waDm","sfPWC1NRcOtweXXpCKLRyW75zO",2433848,1131,FALSE,"resistance_to_framing_trial","4",16019,"a2_5","4","3.0"
"1eFmEaNYZk9nhIejZ5o551waDm","sfPWC1NRcOtweXXpCKLRyW75zO",2443544,1132,FALSE,"resistance_to_framing_trial","2",9694,"a2_6","2","3.0"
"1eFmEaNYZk9nhIejZ5o551waDm","sfPWC1NRcOtweXXpCKLRyW75zO",2472588,1133,FALSE,"resistance_to_framing_trial","4",29042,"a2_7","4","3.0"
"1eFmEaNYZk9nhIejZ5o551waDm","sfPWC1NRcOtweXXpCKLRyW75zO",2794401,1206,FALSE,"resistance_to_framing_trial","5",11790,"rc1_1","5","3.0"
"1eFmEaNYZk9nhIejZ5o551waDm","sfPWC1NRcOtweXXpCKLRyW75zO",2805746,1207,FALSE,"resistance_to_framing_trial","2",11343,"rc1_2","2","3.0"
"1eFmEaNYZk9nhIejZ5o551waDm","sfPWC1NRcOtweXXpCKLRyW75zO",2813856,1208,FALSE,"resistance_to_framing_trial","2",8109,"rc1_3","2","3.0"
"1eFmEaNYZk9nhIejZ5o551waDm","sfPWC1NRcOtweXXpCKLRyW75zO",2823772,1209,FALSE,"resistance_to_framing_trial","2",9915,"rc1_4","2","3.0"
"1eFmEaNYZk9nhIejZ5o551waDm","sfPWC1NRcOtweXXpCKLRyW75zO",2833397,1210,FALSE,"resistance_to_framing_trial","2",9624,"rc1_5","2","3.0"
"1eFmEaNYZk9nhIejZ5o551waDm","sfPWC1NRcOtweXXpCKLRyW75zO",2840801,1211,FALSE,"resistance_to_framing_trial","3",7403,"rc1_6","3","3.0"
"1eFmEaNYZk9nhIejZ5o551waDm","sfPWC1NRcOtweXXpCKLRyW75zO",2849354,1212,FALSE,"resistance_to_framing_trial","4",8552,"rc1_7","4","3.0"
"e93AKbQfQkjIawUmpnrHDyMCEn","r0TGG1ZeRumnSXFJlaV9vR7MW6",1063956,68,FALSE,"resistance_to_framing_trial","2",19535,"a1_1","2.0","2.0"
"e93AKbQfQkjIawUmpnrHDyMCEn","r0TGG1ZeRumnSXFJlaV9vR7MW6",1079766,69,FALSE,"resistance_to_framing_trial","3",15805,"a1_2","3.0","2.0"
"e93AKbQfQkjIawUmpnrHDyMCEn","r0TGG1ZeRumnSXFJlaV9vR7MW6",1097434,70,FALSE,"resistance_to_framing_trial","4",17664,"a1_3","4.0","2.0"
"e93AKbQfQkjIawUmpnrHDyMCEn","r0TGG1ZeRumnSXFJlaV9vR7MW6",1135833,71,FALSE,"resistance_to_framing_trial","5",38394,"a1_4","5.0","2.0"
"e93AKbQfQkjIawUmpnrHDyMCEn","r0TGG1ZeRumnSXFJlaV9vR7MW6",1146167,72,FALSE,"resistance_to_framing_trial","6",10330,"a1_5","6.0","2.0"
"e93AKbQfQkjIawUmpnrHDyMCEn","r0TGG1ZeRumnSXFJlaV9vR7MW6",1164501,73,FALSE,"resistance_to_framing_trial","3",18330,"a1_6","3.0","2.0"
"e93AKbQfQkjIawUmpnrHDyMCEn","r0TGG1ZeRumnSXFJlaV9vR7MW6",1180221,74,FALSE,"resistance_to_framing_trial","6",15714,"a1_7","6.0","2.0"
"e93AKbQfQkjIawUmpnrHDyMCEn","r0TGG1ZeRumnSXFJlaV9vR7MW6",3804442,1087,FALSE,"admc_dr_trial","{'dr1': ['C']}",28844,"dr1","1.0","2.0"
"e93AKbQfQkjIawUmpnrHDyMCEn","r0TGG1ZeRumnSXFJlaV9vR7MW6",3850540,1088,TRUE,"admc_dr_trial","{'dr2': []}",46084,"dr2","0.0","2.0"
"e93AKbQfQkjIawUmpnrHDyMCEn","r0TGG1ZeRumnSXFJlaV9vR7MW6",3854861,1089,FALSE,"admc_dr_trial","{'dr3': ['D']}",4298,"dr3","0.0","2.0"
"e93AKbQfQkjIawUmpnrHDyMCEn","r0TGG1ZeRumnSXFJlaV9vR7MW6",3863381,1090,FALSE,"admc_dr_trial","{'dr4': ['C']}",8506,"dr4","0.0","2.0"
"e93AKbQfQkjIawUmpnrHDyMCEn","r0TGG1ZeRumnSXFJlaV9vR7MW6",3896708,1091,FALSE,"admc_dr_trial","{'dr5': ['B']}",33314,"dr5","0.0","2.0"
"e93AKbQfQkjIawUmpnrHDyMCEn","r0TGG1ZeRumnSXFJlaV9vR7MW6",3909150,1092,FALSE,"admc_dr_trial","{'dr6': ['A']}",12427,"dr6","0.0","2.0"
"e93AKbQfQkjIawUmpnrHDyMCEn","r0TGG1ZeRumnSXFJlaV9vR7MW6",3922903,1093,FALSE,"admc_dr_trial","{'dr7': ['E']}",13741,"dr7","1.0","2.0"
"e93AKbQfQkjIawUmpnrHDyMCEn","r0TGG1ZeRumnSXFJlaV9vR7MW6",3962929,1094,FALSE,"admc_dr_trial","{'dr8': ['A', 'C']}",40011,"dr8","2.0","2.0"
"e93AKbQfQkjIawUmpnrHDyMCEn","r0TGG1ZeRumnSXFJlaV9vR7MW6",4008957,1095,TRUE,"admc_dr_trial","{'dr9': ['D', 'E']}",46013,"dr9","2.0","2.0"
"e93AKbQfQkjIawUmpnrHDyMCEn","r0TGG1ZeRumnSXFJlaV9vR7MW6",4053705,1096,FALSE,"admc_dr_trial","{'dr10': ['B', 'D', 'E']}",44724,"dr10","2.0","2.0"
"e93AKbQfQkjIawUmpnrHDyMCEn","r0TGG1ZeRumnSXFJlaV9vR7MW6",4431428,1129,FALSE,"resistance_to_framing_trial","6",19045,"rc2_1","6.0","2.0"
"e93AKbQfQkjIawUmpnrHDyMCEn","r0TGG1ZeRumnSXFJlaV9vR7MW6",4448950,1130,FALSE,"resistance_to_framing_trial","2",17519,"rc2_2","2.0","2.0"
"e93AKbQfQkjIawUmpnrHDyMCEn","r0TGG1ZeRumnSXFJlaV9vR7MW6",4458139,1131,FALSE,"resistance_to_framing_trial","5",9186,"rc2_3","5.0","2.0"
"e93AKbQfQkjIawUmpnrHDyMCEn","r0TGG1ZeRumnSXFJlaV9vR7MW6",4476911,1132,FALSE,"resistance_to_framing_trial","2",18767,"rc2_4","2.0","2.0"
"e93AKbQfQkjIawUmpnrHDyMCEn","r0TGG1ZeRumnSXFJlaV9vR7MW6",4487974,1133,FALSE,"resistance_to_framing_trial","6",11059,"rc2_5","6.0","2.0"
"e93AKbQfQkjIawUmpnrHDyMCEn","r0TGG1ZeRumnSXFJlaV9vR7MW6",4504222,1134,FALSE,"resistance_to_framing_trial","6",16244,"rc2_6","6.0","2.0"
"e93AKbQfQkjIawUmpnrHDyMCEn","r0TGG1ZeRumnSXFJlaV9vR7MW6",4520067,1135,FALSE,"resistance_to_framing_trial","4",15842,"rc2_7","4.0","2.0"
"xLaOuTPyoXqlPa6U9Kn4BVDczY","IkWCCsYMColHhPtp7GOvqxDC0i",205716,20,FALSE,"resistance_to_framing_trial","2",16332,"rc1_1","2","3.0"
"xLaOuTPyoXqlPa6U9Kn4BVDczY","IkWCCsYMColHhPtp7GOvqxDC0i",215545,21,FALSE,"resistance_to_framing_trial","2",9825,"rc1_2","2","3.0"
"xLaOuTPyoXqlPa6U9Kn4BVDczY","IkWCCsYMColHhPtp7GOvqxDC0i",226711,22,FALSE,"resistance_to_framing_trial","5",11164,"rc1_3","5","3.0"
"xLaOuTPyoXqlPa6U9Kn4BVDczY","IkWCCsYMColHhPtp7GOvqxDC0i",233685,23,FALSE,"resistance_to_framing_trial","2",6970,"rc1_4","2","3.0"
"xLaOuTPyoXqlPa6U9Kn4BVDczY","IkWCCsYMColHhPtp7GOvqxDC0i",243536,24,FALSE,"resistance_to_framing_trial","5",9848,"rc1_5","5","3.0"
"xLaOuTPyoXqlPa6U9Kn4BVDczY","IkWCCsYMColHhPtp7GOvqxDC0i",251350,25,FALSE,"resistance_to_framing_trial","5",7811,"rc1_6","5","3.0"
"xLaOuTPyoXqlPa6U9Kn4BVDczY","IkWCCsYMColHhPtp7GOvqxDC0i",261977,26,FALSE,"resistance_to_framing_trial","6",10623,"rc1_7","6","3.0"
"xLaOuTPyoXqlPa6U9Kn4BVDczY","IkWCCsYMColHhPtp7GOvqxDC0i",3168908,1309,FALSE,"resistance_to_framing_trial","3",9670,"a2_1","3","3.0"
"xLaOuTPyoXqlPa6U9Kn4BVDczY","IkWCCsYMColHhPtp7GOvqxDC0i",3173383,1310,FALSE,"resistance_to_framing_trial","4",4473,"a2_2","4","3.0"
"xLaOuTPyoXqlPa6U9Kn4BVDczY","IkWCCsYMColHhPtp7GOvqxDC0i",3176763,1311,FALSE,"resistance_to_framing_trial","3",3377,"a2_3","3","3.0"
"xLaOuTPyoXqlPa6U9Kn4BVDczY","IkWCCsYMColHhPtp7GOvqxDC0i",3180275,1312,FALSE,"resistance_to_framing_trial","3",3508,"a2_4","3","3.0"
"xLaOuTPyoXqlPa6U9Kn4BVDczY","IkWCCsYMColHhPtp7GOvqxDC0i",3184465,1313,FALSE,"resistance_to_framing_trial","2",4187,"a2_5","2","3.0"
"xLaOuTPyoXqlPa6U9Kn4BVDczY","IkWCCsYMColHhPtp7GOvqxDC0i",3189874,1314,FALSE,"resistance_to_framing_trial","5",5406,"a2_6","5","3.0"
"xLaOuTPyoXqlPa6U9Kn4BVDczY","IkWCCsYMColHhPtp7GOvqxDC0i",3193438,1315,FALSE,"resistance_to_framing_trial","3",3561,"a2_7","3","3.0"
