"session_id","session_restart_id","time_elapsed","trial_index","custom_timer_ended_trial","trial","response","rt","stimulus","list_id","wave","correct_answer","correct"
"Z74YBwECpL8QkLR6RuxT2rrff6","hkshJADA5gEvvtwdyiZzMC4WH7",2725377,848,FALSE,0,5,8349,"B1_1",1,"3.0",3,0
"Z74YBwECpL8QkLR6RuxT2rrff6","hkshJADA5gEvvtwdyiZzMC4WH7",2733259,849,FALSE,1,5,7878,"C2_1",1,"3.0",5,1
"Z74YBwECpL8QkLR6RuxT2rrff6","hkshJADA5gEvvtwdyiZzMC4WH7",2749001,850,FALSE,2,7,15738,"D3_1",1,"3.0",7,1
"Z74YBwECpL8QkLR6RuxT2rrff6","hkshJADA5gEvvtwdyiZzMC4WH7",2767057,851,FALSE,3,8,18052,"E4_1",1,"3.0",8,1
"Z74YBwECpL8QkLR6RuxT2rrff6","hkshJADA5gEvvtwdyiZzMC4WH7",2775179,852,FALSE,4,5,8118,"A1B2",1,"3.0",5,1
"Z74YBwECpL8QkLR6RuxT2rrff6","hkshJADA5gEvvtwdyiZzMC4WH7",2800839,853,FALSE,5,7,25656,"A2C3",1,"3.0",7,1
"Z74YBwECpL8QkLR6RuxT2rrff6","hkshJADA5gEvvtwdyiZzMC4WH7",2820247,854,FALSE,6,8,19404,"A3D4",1,"3.0",2,0
"Z74YBwECpL8QkLR6RuxT2rrff6","hkshJADA5gEvvtwdyiZzMC4WH7",2851249,855,TRUE,7,6,30999,"A4E5",1,"3.0",8,0
"Z74YBwECpL8QkLR6RuxT2rrff6","hkshJADA5gEvvtwdyiZzMC4WH7",2873229,856,FALSE,8,6,21976,"B5C1",1,"3.0",5,0
"Z74YBwECpL8QkLR6RuxT2rrff6","hkshJADA5gEvvtwdyiZzMC4WH7",2880229,857,FALSE,9,4,6996,"B1D2",1,"3.0",4,1
"Z74YBwECpL8QkLR6RuxT2rrff6","hkshJADA5gEvvtwdyiZzMC4WH7",2894279,858,FALSE,10,8,14046,"B2E3",1,"3.0",8,1
"Z74YBwECpL8QkLR6RuxT2rrff6","hkshJADA5gEvvtwdyiZzMC4WH7",2910405,859,FALSE,11,5,16122,"C3D4",1,"3.0",2,0
"Z74YBwECpL8QkLR6RuxT2rrff6","hkshJADA5gEvvtwdyiZzMC4WH7",2939139,860,FALSE,12,7,28730,"C4E5",1,"3.0",7,1
"Z74YBwECpL8QkLR6RuxT2rrff6","hkshJADA5gEvvtwdyiZzMC4WH7",2963255,861,FALSE,13,7,24112,"D5E1",1,"3.0",5,0
"Z74YBwECpL8QkLR6RuxT2rrff6","hkshJADA5gEvvtwdyiZzMC4WH7",2994257,862,TRUE,14,NA,30998,"X_1",1,"3.0",5,NA
"Z74YBwECpL8QkLR6RuxT2rrff6","hkshJADA5gEvvtwdyiZzMC4WH7",3025260,863,TRUE,15,NA,30999,"Y_1",1,"3.0",6,NA
"Z74YBwECpL8QkLR6RuxT2rrff6","hkshJADA5gEvvtwdyiZzMC4WH7",3049701,864,FALSE,16,7,24437,"Z_1",1,"3.0",7,1
"Z74YBwECpL8QkLR6RuxT2rrff6","hkshJADA5gEvvtwdyiZzMC4WH7",3063679,865,FALSE,17,4,13975,"A3B1C2_1",1,"3.0",4,1
"Z74YBwECpL8QkLR6RuxT2rrff6","hkshJADA5gEvvtwdyiZzMC4WH7",3080033,866,FALSE,18,3,16350,"A2B4E1",1,"3.0",3,1
"Z74YBwECpL8QkLR6RuxT2rrff6","hkshJADA5gEvvtwdyiZzMC4WH7",3093237,867,FALSE,19,6,13200,"B1C5E2",1,"3.0",6,1
"Z74YBwECpL8QkLR6RuxT2rrff6","hkshJADA5gEvvtwdyiZzMC4WH7",3121025,868,FALSE,20,1,27784,"A1D3E2",1,"3.0",1,1
"Z74YBwECpL8QkLR6RuxT2rrff6","hkshJADA5gEvvtwdyiZzMC4WH7",3152027,869,TRUE,21,7,30998,"B2C1E4",1,"3.0",6,0
"Z74YBwECpL8QkLR6RuxT2rrff6","hkshJADA5gEvvtwdyiZzMC4WH7",3166497,870,FALSE,22,6,14466,"A3B4C1",1,"3.0",6,1
"Z74YBwECpL8QkLR6RuxT2rrff6","hkshJADA5gEvvtwdyiZzMC4WH7",3186509,871,FALSE,23,3,20008,"A3B2C5",1,"3.0",2,0
"Z74YBwECpL8QkLR6RuxT2rrff6","hkshJADA5gEvvtwdyiZzMC4WH7",3197665,872,FALSE,24,1,11152,"A4B1D3",1,"3.0",1,1
"Z74YBwECpL8QkLR6RuxT2rrff6","hkshJADA5gEvvtwdyiZzMC4WH7",3224483,873,FALSE,25,8,26814,"A4B2E5",1,"3.0",6,0
"Z74YBwECpL8QkLR6RuxT2rrff6","hkshJADA5gEvvtwdyiZzMC4WH7",3238457,874,FALSE,26,2,13970,"B5C3D1",1,"3.0",4,0
"Z74YBwECpL8QkLR6RuxT2rrff6","hkshJADA5gEvvtwdyiZzMC4WH7",3251179,875,FALSE,27,8,12718,"B5C2D4",1,"3.0",7,0
"Z74YBwECpL8QkLR6RuxT2rrff6","hkshJADA5gEvvtwdyiZzMC4WH7",3267499,876,FALSE,28,2,16317,"A2B3E4",1,"3.0",2,1
"Z74YBwECpL8QkLR6RuxT2rrff6","hkshJADA5gEvvtwdyiZzMC4WH7",3296442,877,FALSE,29,3,28940,"C3D5E1",1,"3.0",3,1
"Z74YBwECpL8QkLR6RuxT2rrff6","hkshJADA5gEvvtwdyiZzMC4WH7",3313628,878,FALSE,30,4,17182,"B2C4E3",1,"3.0",1,0
"Z74YBwECpL8QkLR6RuxT2rrff6","hkshJADA5gEvvtwdyiZzMC4WH7",3328348,879,FALSE,31,3,14716,"A2D4E5",1,"3.0",3,1
"Z74YBwECpL8QkLR6RuxT2rrff6","hkshJADA5gEvvtwdyiZzMC4WH7",3336298,880,FALSE,32,6,7946,"A3B4C5_1",1,"3.0",1,0
"Z74YBwECpL8QkLR6RuxT2rrff6","hkshJADA5gEvvtwdyiZzMC4WH7",3350529,881,FALSE,33,3,14226,"A3B5D4_1",1,"3.0",7,0
"Z74YBwECpL8QkLR6RuxT2rrff6","hkshJADA5gEvvtwdyiZzMC4WH7",3359143,882,FALSE,34,4,8610,"A4B3E5_1",1,"3.0",4,1
"Z74YBwECpL8QkLR6RuxT2rrff6","hkshJADA5gEvvtwdyiZzMC4WH7",3381059,883,FALSE,35,1,21912,"A4C5D3_1",1,"3.0",1,1
"Z74YBwECpL8QkLR6RuxT2rrff6","hkshJADA5gEvvtwdyiZzMC4WH7",3396897,884,FALSE,36,3,15834,"A3C4E5_1",1,"3.0",3,1
"Z74YBwECpL8QkLR6RuxT2rrff6","hkshJADA5gEvvtwdyiZzMC4WH7",3420139,885,FALSE,37,5,23238,"A3D5E4_1",1,"3.0",4,0
"Z74YBwECpL8QkLR6RuxT2rrff6","hkshJADA5gEvvtwdyiZzMC4WH7",3431973,886,FALSE,38,3,11830,"B3C4D5_1",1,"3.0",5,0
"Z74YBwECpL8QkLR6RuxT2rrff6","hkshJADA5gEvvtwdyiZzMC4WH7",3442409,887,FALSE,39,6,10432,"B3C5E4_1",1,"3.0",7,0
"Z74YBwECpL8QkLR6RuxT2rrff6","hkshJADA5gEvvtwdyiZzMC4WH7",3467545,888,FALSE,40,8,25132,"B4D3E5_1",1,"3.0",8,1
"Z74YBwECpL8QkLR6RuxT2rrff6","hkshJADA5gEvvtwdyiZzMC4WH7",3492299,889,FALSE,41,6,24750,"C4D5E3_1",1,"3.0",6,1
"NhLuEUpFKVLMXcgOH9FRZibbUN","8bqynu00xCMLlut8SOlhm9JjIj",2033142,1131,FALSE,0,5,16412,"A4_2",8,"3.0",1,0
"NhLuEUpFKVLMXcgOH9FRZibbUN","8bqynu00xCMLlut8SOlhm9JjIj",2038474,1132,FALSE,1,5,5316,"B5_1",8,"3.0",4,0
"NhLuEUpFKVLMXcgOH9FRZibbUN","8bqynu00xCMLlut8SOlhm9JjIj",2039611,1133,FALSE,2,5,1124,"C1_1",8,"3.0",5,1
"NhLuEUpFKVLMXcgOH9FRZibbUN","8bqynu00xCMLlut8SOlhm9JjIj",2040884,1134,FALSE,3,4,1259,"D2_1",8,"3.0",7,0
"NhLuEUpFKVLMXcgOH9FRZibbUN","8bqynu00xCMLlut8SOlhm9JjIj",2042338,1135,FALSE,4,3,1437,"E3_1",8,"3.0",8,0
"NhLuEUpFKVLMXcgOH9FRZibbUN","8bqynu00xCMLlut8SOlhm9JjIj",2043732,1136,FALSE,5,5,1382,"D1E5",8,"3.0",6,0
"NhLuEUpFKVLMXcgOH9FRZibbUN","8bqynu00xCMLlut8SOlhm9JjIj",2044777,1137,FALSE,6,5,1031,"A2B1",8,"3.0",8,0
"NhLuEUpFKVLMXcgOH9FRZibbUN","8bqynu00xCMLlut8SOlhm9JjIj",2048351,1138,FALSE,7,3,3561,"A3C2",8,"3.0",2,0
"NhLuEUpFKVLMXcgOH9FRZibbUN","8bqynu00xCMLlut8SOlhm9JjIj",2049734,1139,FALSE,8,4,1368,"A4D3",8,"3.0",3,0
"NhLuEUpFKVLMXcgOH9FRZibbUN","8bqynu00xCMLlut8SOlhm9JjIj",2050915,1140,FALSE,9,2,1168,"B1C5",8,"3.0",7,0
"NhLuEUpFKVLMXcgOH9FRZibbUN","8bqynu00xCMLlut8SOlhm9JjIj",2052981,1141,FALSE,10,1,2050,"B2D1",8,"3.0",8,0
"NhLuEUpFKVLMXcgOH9FRZibbUN","8bqynu00xCMLlut8SOlhm9JjIj",2055773,1142,FALSE,11,4,2778,"B3E2",8,"3.0",2,0
"NhLuEUpFKVLMXcgOH9FRZibbUN","8bqynu00xCMLlut8SOlhm9JjIj",2057160,1143,FALSE,12,3,1373,"C4D3",8,"3.0",4,0
"NhLuEUpFKVLMXcgOH9FRZibbUN","8bqynu00xCMLlut8SOlhm9JjIj",2058801,1144,FALSE,13,5,1627,"C5E4",8,"3.0",5,1
"NhLuEUpFKVLMXcgOH9FRZibbUN","8bqynu00xCMLlut8SOlhm9JjIj",2060276,1145,FALSE,14,6,1458,"X_8",8,"3.0",8,0
"NhLuEUpFKVLMXcgOH9FRZibbUN","8bqynu00xCMLlut8SOlhm9JjIj",2061755,1146,FALSE,15,7,1465,"Y_8",8,"3.0",5,0
"NhLuEUpFKVLMXcgOH9FRZibbUN","8bqynu00xCMLlut8SOlhm9JjIj",2062845,1147,FALSE,16,5,1076,"Z_8",8,"3.0",4,0
"NhLuEUpFKVLMXcgOH9FRZibbUN","8bqynu00xCMLlut8SOlhm9JjIj",2069634,1148,FALSE,17,6,6772,"A4B2E1_1",8,"3.0",5,0
"NhLuEUpFKVLMXcgOH9FRZibbUN","8bqynu00xCMLlut8SOlhm9JjIj",2071143,1149,FALSE,18,6,1494,"B5C1E2",8,"3.0",6,1
"NhLuEUpFKVLMXcgOH9FRZibbUN","8bqynu00xCMLlut8SOlhm9JjIj",2073024,1150,FALSE,19,3,1867,"A1C3D2",8,"3.0",7,0
"NhLuEUpFKVLMXcgOH9FRZibbUN","8bqynu00xCMLlut8SOlhm9JjIj",2075014,1151,FALSE,20,3,1978,"B2C1D4",8,"3.0",3,1
"NhLuEUpFKVLMXcgOH9FRZibbUN","8bqynu00xCMLlut8SOlhm9JjIj",2077686,1152,FALSE,21,4,2657,"C1D2E5",8,"3.0",2,0
"NhLuEUpFKVLMXcgOH9FRZibbUN","8bqynu00xCMLlut8SOlhm9JjIj",2079230,1153,FALSE,22,5,1529,"A3B5E2",8,"3.0",8,0
"NhLuEUpFKVLMXcgOH9FRZibbUN","8bqynu00xCMLlut8SOlhm9JjIj",2080953,1154,FALSE,23,6,1709,"A4C3D1",8,"3.0",1,0
"NhLuEUpFKVLMXcgOH9FRZibbUN","8bqynu00xCMLlut8SOlhm9JjIj",2082553,1155,FALSE,24,6,1585,"A4C2D5",8,"3.0",4,0
"NhLuEUpFKVLMXcgOH9FRZibbUN","8bqynu00xCMLlut8SOlhm9JjIj",2084823,1156,FALSE,25,5,2254,"A4D1E3",8,"3.0",3,0
"NhLuEUpFKVLMXcgOH9FRZibbUN","8bqynu00xCMLlut8SOlhm9JjIj",2087060,1157,FALSE,26,6,2223,"B5C4E2",8,"3.0",6,1
"NhLuEUpFKVLMXcgOH9FRZibbUN","8bqynu00xCMLlut8SOlhm9JjIj",2088672,1158,FALSE,27,5,1596,"A2B3D4",8,"3.0",1,0
"NhLuEUpFKVLMXcgOH9FRZibbUN","8bqynu00xCMLlut8SOlhm9JjIj",2090470,1159,FALSE,28,4,1784,"B3D1E5",8,"3.0",6,0
"NhLuEUpFKVLMXcgOH9FRZibbUN","8bqynu00xCMLlut8SOlhm9JjIj",2092762,1160,FALSE,29,6,2279,"B2C4D3",8,"3.0",6,1
"NhLuEUpFKVLMXcgOH9FRZibbUN","8bqynu00xCMLlut8SOlhm9JjIj",2094570,1161,FALSE,30,4,1797,"A2C4E5",8,"3.0",2,0
"NhLuEUpFKVLMXcgOH9FRZibbUN","8bqynu00xCMLlut8SOlhm9JjIj",2096375,1162,FALSE,31,4,1790,"C1D5E3",8,"3.0",1,0
"NhLuEUpFKVLMXcgOH9FRZibbUN","8bqynu00xCMLlut8SOlhm9JjIj",2097622,1163,FALSE,32,4,1222,"A4B5C3_2",8,"3.0",6,0
"NhLuEUpFKVLMXcgOH9FRZibbUN","8bqynu00xCMLlut8SOlhm9JjIj",2098857,1164,FALSE,33,4,1215,"A3B4D5_2",8,"3.0",4,1
"NhLuEUpFKVLMXcgOH9FRZibbUN","8bqynu00xCMLlut8SOlhm9JjIj",2100880,1165,FALSE,34,4,2005,"A3B5E4_2",8,"3.0",7,0
"NhLuEUpFKVLMXcgOH9FRZibbUN","8bqynu00xCMLlut8SOlhm9JjIj",2103051,1166,FALSE,35,3,2156,"A4C3D5_2",8,"3.0",2,0
"NhLuEUpFKVLMXcgOH9FRZibbUN","8bqynu00xCMLlut8SOlhm9JjIj",2104374,1167,FALSE,36,5,1309,"A4C5E3_2",8,"3.0",3,0
"NhLuEUpFKVLMXcgOH9FRZibbUN","8bqynu00xCMLlut8SOlhm9JjIj",2109827,1168,FALSE,37,3,5438,"A3D4E5_2",8,"3.0",1,0
"NhLuEUpFKVLMXcgOH9FRZibbUN","8bqynu00xCMLlut8SOlhm9JjIj",2117946,1169,FALSE,38,2,8106,"B3C5D4_2",8,"3.0",3,0
"NhLuEUpFKVLMXcgOH9FRZibbUN","8bqynu00xCMLlut8SOlhm9JjIj",2119883,1170,FALSE,39,2,1916,"B4C3E5_2",8,"3.0",1,0
"NhLuEUpFKVLMXcgOH9FRZibbUN","8bqynu00xCMLlut8SOlhm9JjIj",2126273,1171,FALSE,40,7,6375,"B4D5E3_2",8,"3.0",7,1
"NhLuEUpFKVLMXcgOH9FRZibbUN","8bqynu00xCMLlut8SOlhm9JjIj",2127637,1172,FALSE,41,6,1346,"C5D3E4_2",8,"3.0",4,0
"roE5s1646kIDOHR2ypn0gY8XIG","28TcpfsssHRGwhYTS43NorZ2aj",1497088,624,FALSE,0,4,2624,"A1_1",5,"2.0",6,0
"roE5s1646kIDOHR2ypn0gY8XIG","28TcpfsssHRGwhYTS43NorZ2aj",1499289,625,FALSE,1,4,2198,"B2_1",5,"2.0",8,0
"roE5s1646kIDOHR2ypn0gY8XIG","28TcpfsssHRGwhYTS43NorZ2aj",1502078,626,FALSE,2,3,2786,"C3_1",5,"2.0",7,0
"roE5s1646kIDOHR2ypn0gY8XIG","28TcpfsssHRGwhYTS43NorZ2aj",1504609,627,FALSE,3,6,2528,"D4_1",5,"2.0",8,0
"roE5s1646kIDOHR2ypn0gY8XIG","28TcpfsssHRGwhYTS43NorZ2aj",1522831,628,FALSE,4,2,18218,"E5_1",5,"2.0",2,1
"roE5s1646kIDOHR2ypn0gY8XIG","28TcpfsssHRGwhYTS43NorZ2aj",1533672,629,FALSE,5,4,10840,"D1E2",5,"2.0",3,0
"roE5s1646kIDOHR2ypn0gY8XIG","28TcpfsssHRGwhYTS43NorZ2aj",1551835,630,FALSE,6,5,18159,"A2B3",5,"2.0",5,1
"roE5s1646kIDOHR2ypn0gY8XIG","28TcpfsssHRGwhYTS43NorZ2aj",1564297,631,FALSE,7,1,12458,"A3C4",5,"2.0",7,0
"roE5s1646kIDOHR2ypn0gY8XIG","28TcpfsssHRGwhYTS43NorZ2aj",1586383,632,FALSE,8,5,22081,"A4D5",5,"2.0",5,1
"roE5s1646kIDOHR2ypn0gY8XIG","28TcpfsssHRGwhYTS43NorZ2aj",1594049,633,FALSE,9,4,7663,"B1C2",5,"2.0",4,1
"roE5s1646kIDOHR2ypn0gY8XIG","28TcpfsssHRGwhYTS43NorZ2aj",1611165,634,FALSE,10,5,17112,"B2D3",5,"2.0",5,1
"roE5s1646kIDOHR2ypn0gY8XIG","28TcpfsssHRGwhYTS43NorZ2aj",1632205,635,FALSE,11,3,21037,"B3E4",5,"2.0",8,0
"roE5s1646kIDOHR2ypn0gY8XIG","28TcpfsssHRGwhYTS43NorZ2aj",1646040,636,FALSE,12,5,13831,"C4D5",5,"2.0",5,1
"roE5s1646kIDOHR2ypn0gY8XIG","28TcpfsssHRGwhYTS43NorZ2aj",1662539,637,FALSE,13,8,16496,"C5E1",5,"2.0",4,0
"roE5s1646kIDOHR2ypn0gY8XIG","28TcpfsssHRGwhYTS43NorZ2aj",1698045,638,FALSE,14,5,35503,"X_5",5,"2.0",8,0
"roE5s1646kIDOHR2ypn0gY8XIG","28TcpfsssHRGwhYTS43NorZ2aj",1719252,639,FALSE,15,2,21204,"Y_5",5,"2.0",2,1
"roE5s1646kIDOHR2ypn0gY8XIG","28TcpfsssHRGwhYTS43NorZ2aj",1748776,640,FALSE,16,1,29520,"Z_5",5,"2.0",7,0
"roE5s1646kIDOHR2ypn0gY8XIG","28TcpfsssHRGwhYTS43NorZ2aj",1774179,641,FALSE,17,5,25399,"A4B1D2",5,"2.0",3,0
"roE5s1646kIDOHR2ypn0gY8XIG","28TcpfsssHRGwhYTS43NorZ2aj",1795465,642,FALSE,18,3,21283,"B5C2D1",5,"2.0",2,0
"roE5s1646kIDOHR2ypn0gY8XIG","28TcpfsssHRGwhYTS43NorZ2aj",1803112,643,FALSE,19,3,7645,"B1C3E2",5,"2.0",8,0
"roE5s1646kIDOHR2ypn0gY8XIG","28TcpfsssHRGwhYTS43NorZ2aj",1809112,644,FALSE,20,3,5996,"A1B2D4",5,"2.0",1,0
"roE5s1646kIDOHR2ypn0gY8XIG","28TcpfsssHRGwhYTS43NorZ2aj",1827050,645,FALSE,21,7,17935,"A2D1E5",5,"2.0",4,0
"roE5s1646kIDOHR2ypn0gY8XIG","28TcpfsssHRGwhYTS43NorZ2aj",1858529,646,TRUE,22,NA,31476,"A3B4D1",5,"2.0",3,NA
"roE5s1646kIDOHR2ypn0gY8XIG","28TcpfsssHRGwhYTS43NorZ2aj",1868802,647,FALSE,23,7,10271,"A3C5D2",5,"2.0",6,0
"roE5s1646kIDOHR2ypn0gY8XIG","28TcpfsssHRGwhYTS43NorZ2aj",1887869,648,FALSE,24,8,19063,"A3B1D4",5,"2.0",1,0
"roE5s1646kIDOHR2ypn0gY8XIG","28TcpfsssHRGwhYTS43NorZ2aj",1913966,649,FALSE,25,6,26094,"A3B2E5",5,"2.0",6,1
"roE5s1646kIDOHR2ypn0gY8XIG","28TcpfsssHRGwhYTS43NorZ2aj",1921251,650,FALSE,26,6,7282,"B4C3D1",5,"2.0",6,1
"roE5s1646kIDOHR2ypn0gY8XIG","28TcpfsssHRGwhYTS43NorZ2aj",1928763,651,FALSE,27,2,7508,"B4C2D5",5,"2.0",2,1
"roE5s1646kIDOHR2ypn0gY8XIG","28TcpfsssHRGwhYTS43NorZ2aj",1935535,652,FALSE,28,7,6768,"A2B5E3",5,"2.0",1,0
"roE5s1646kIDOHR2ypn0gY8XIG","28TcpfsssHRGwhYTS43NorZ2aj",1955399,653,FALSE,29,5,19861,"C5D4E1",5,"2.0",6,0
"roE5s1646kIDOHR2ypn0gY8XIG","28TcpfsssHRGwhYTS43NorZ2aj",1973891,654,FALSE,30,1,18489,"B2C3E4",5,"2.0",4,0
"roE5s1646kIDOHR2ypn0gY8XIG","28TcpfsssHRGwhYTS43NorZ2aj",1984163,655,FALSE,31,7,10268,"A2D3E5",5,"2.0",7,1
"roE5s1646kIDOHR2ypn0gY8XIG","28TcpfsssHRGwhYTS43NorZ2aj",1995344,656,FALSE,32,4,11178,"A3B4C5_2",5,"2.0",2,0
"roE5s1646kIDOHR2ypn0gY8XIG","28TcpfsssHRGwhYTS43NorZ2aj",2013169,657,FALSE,33,3,17821,"A3B5D4_2",5,"2.0",3,1
"roE5s1646kIDOHR2ypn0gY8XIG","28TcpfsssHRGwhYTS43NorZ2aj",2018887,658,FALSE,34,5,5715,"A4B3E5_2",5,"2.0",1,0
"roE5s1646kIDOHR2ypn0gY8XIG","28TcpfsssHRGwhYTS43NorZ2aj",2025630,659,FALSE,35,6,6739,"A4C5D3_2",5,"2.0",3,0
"roE5s1646kIDOHR2ypn0gY8XIG","28TcpfsssHRGwhYTS43NorZ2aj",2030522,660,FALSE,36,5,4889,"A3C4E5_2",5,"2.0",1,0
"roE5s1646kIDOHR2ypn0gY8XIG","28TcpfsssHRGwhYTS43NorZ2aj",2038311,661,FALSE,37,2,7785,"A3D5E4_2",5,"2.0",7,0
"roE5s1646kIDOHR2ypn0gY8XIG","28TcpfsssHRGwhYTS43NorZ2aj",2046601,662,FALSE,38,4,8287,"B5C3D4_1",5,"2.0",4,1
"roE5s1646kIDOHR2ypn0gY8XIG","28TcpfsssHRGwhYTS43NorZ2aj",2054151,663,FALSE,39,6,7547,"B5C4E3_1",5,"2.0",1,0
"roE5s1646kIDOHR2ypn0gY8XIG","28TcpfsssHRGwhYTS43NorZ2aj",2071986,664,FALSE,40,3,17831,"B3D4E5_1",5,"2.0",3,1
"roE5s1646kIDOHR2ypn0gY8XIG","28TcpfsssHRGwhYTS43NorZ2aj",2095402,665,FALSE,41,5,23413,"C3D5E4_1",5,"2.0",4,0
"tLSjGm6Dqri4nsVHHnkVL8G3V4","VYycXONC2I51jJfJmnalaU8NU2",1054599,676,FALSE,0,3,1232,"A2_1",6,"2.0",5,0
"tLSjGm6Dqri4nsVHHnkVL8G3V4","VYycXONC2I51jJfJmnalaU8NU2",1055847,677,FALSE,1,6,1246,"B3_1",6,"2.0",7,0
"tLSjGm6Dqri4nsVHHnkVL8G3V4","VYycXONC2I51jJfJmnalaU8NU2",1057007,678,FALSE,2,3,1158,"C4_1",6,"2.0",8,0
"tLSjGm6Dqri4nsVHHnkVL8G3V4","VYycXONC2I51jJfJmnalaU8NU2",1061218,679,FALSE,3,6,4209,"D5_1",6,"2.0",6,1
"tLSjGm6Dqri4nsVHHnkVL8G3V4","VYycXONC2I51jJfJmnalaU8NU2",1064498,680,FALSE,4,8,3277,"E1_1",6,"2.0",8,1
"tLSjGm6Dqri4nsVHHnkVL8G3V4","VYycXONC2I51jJfJmnalaU8NU2",1071161,681,FALSE,5,6,6661,"D1E3",6,"2.0",2,0
"tLSjGm6Dqri4nsVHHnkVL8G3V4","VYycXONC2I51jJfJmnalaU8NU2",1072580,682,FALSE,6,5,1417,"A2B4",6,"2.0",3,0
"tLSjGm6Dqri4nsVHHnkVL8G3V4","VYycXONC2I51jJfJmnalaU8NU2",1073609,683,FALSE,7,4,1027,"A3C5",6,"2.0",5,0
"tLSjGm6Dqri4nsVHHnkVL8G3V4","VYycXONC2I51jJfJmnalaU8NU2",1074560,684,FALSE,8,3,949,"A4D1",6,"2.0",7,0
"tLSjGm6Dqri4nsVHHnkVL8G3V4","VYycXONC2I51jJfJmnalaU8NU2",1078506,685,FALSE,9,3,3943,"B1C3",6,"2.0",2,0
"tLSjGm6Dqri4nsVHHnkVL8G3V4","VYycXONC2I51jJfJmnalaU8NU2",1083402,686,FALSE,10,4,4894,"B2D4",6,"2.0",4,1
"tLSjGm6Dqri4nsVHHnkVL8G3V4","VYycXONC2I51jJfJmnalaU8NU2",1090987,687,FALSE,11,2,7583,"B3E5",6,"2.0",5,0
"tLSjGm6Dqri4nsVHHnkVL8G3V4","VYycXONC2I51jJfJmnalaU8NU2",1096788,688,FALSE,12,6,5799,"C4D1",6,"2.0",8,0
"tLSjGm6Dqri4nsVHHnkVL8G3V4","VYycXONC2I51jJfJmnalaU8NU2",1101940,689,FALSE,13,5,5150,"C5E2",6,"2.0",5,1
"tLSjGm6Dqri4nsVHHnkVL8G3V4","VYycXONC2I51jJfJmnalaU8NU2",1110862,690,FALSE,14,5,8920,"X_6",6,"2.0",4,0
"tLSjGm6Dqri4nsVHHnkVL8G3V4","VYycXONC2I51jJfJmnalaU8NU2",1112718,691,FALSE,15,4,1853,"Y_6",6,"2.0",8,0
"tLSjGm6Dqri4nsVHHnkVL8G3V4","VYycXONC2I51jJfJmnalaU8NU2",1113839,692,FALSE,16,5,1119,"Z_6",6,"2.0",2,0
"tLSjGm6Dqri4nsVHHnkVL8G3V4","VYycXONC2I51jJfJmnalaU8NU2",1114662,693,FALSE,17,6,821,"A3B2D1_2",6,"2.0",7,0
"tLSjGm6Dqri4nsVHHnkVL8G3V4","VYycXONC2I51jJfJmnalaU8NU2",1115495,694,FALSE,18,3,830,"A1B3E2",6,"2.0",3,1
"tLSjGm6Dqri4nsVHHnkVL8G3V4","VYycXONC2I51jJfJmnalaU8NU2",1116871,695,FALSE,19,5,1374,"B1C4E2",6,"2.0",2,0
"tLSjGm6Dqri4nsVHHnkVL8G3V4","VYycXONC2I51jJfJmnalaU8NU2",1117814,696,FALSE,20,6,941,"A2B1D5",6,"2.0",8,0
"tLSjGm6Dqri4nsVHHnkVL8G3V4","VYycXONC2I51jJfJmnalaU8NU2",1118735,697,FALSE,21,4,919,"B1C2E3",6,"2.0",1,0
"tLSjGm6Dqri4nsVHHnkVL8G3V4","VYycXONC2I51jJfJmnalaU8NU2",1119519,698,FALSE,22,3,783,"A3B5D2",6,"2.0",4,0
"tLSjGm6Dqri4nsVHHnkVL8G3V4","VYycXONC2I51jJfJmnalaU8NU2",1120551,699,FALSE,23,7,1028,"A3B1C4",6,"2.0",3,0
"tLSjGm6Dqri4nsVHHnkVL8G3V4","VYycXONC2I51jJfJmnalaU8NU2",1127144,700,FALSE,24,6,6591,"A3B2D5",6,"2.0",6,1
"tLSjGm6Dqri4nsVHHnkVL8G3V4","VYycXONC2I51jJfJmnalaU8NU2",1133546,701,FALSE,25,1,6400,"A4B1E3",6,"2.0",1,1
"tLSjGm6Dqri4nsVHHnkVL8G3V4","VYycXONC2I51jJfJmnalaU8NU2",1135226,702,FALSE,26,5,1678,"B4C5D2",6,"2.0",6,0
"tLSjGm6Dqri4nsVHHnkVL8G3V4","VYycXONC2I51jJfJmnalaU8NU2",1137195,703,FALSE,27,6,1967,"B5C1D3",6,"2.0",6,1
"tLSjGm6Dqri4nsVHHnkVL8G3V4","VYycXONC2I51jJfJmnalaU8NU2",1138249,704,FALSE,28,4,1052,"A1B5E4",6,"2.0",2,0
"tLSjGm6Dqri4nsVHHnkVL8G3V4","VYycXONC2I51jJfJmnalaU8NU2",1139042,705,FALSE,29,3,791,"C3D4E2",6,"2.0",1,0
"tLSjGm6Dqri4nsVHHnkVL8G3V4","VYycXONC2I51jJfJmnalaU8NU2",1139938,706,FALSE,30,4,895,"B2C3E5",6,"2.0",6,0
"tLSjGm6Dqri4nsVHHnkVL8G3V4","VYycXONC2I51jJfJmnalaU8NU2",1140762,707,FALSE,31,3,822,"A1D4E3",6,"2.0",4,0
"tLSjGm6Dqri4nsVHHnkVL8G3V4","VYycXONC2I51jJfJmnalaU8NU2",1141658,708,FALSE,32,3,893,"A3B5C4_2",6,"2.0",7,0
"tLSjGm6Dqri4nsVHHnkVL8G3V4","VYycXONC2I51jJfJmnalaU8NU2",1142850,709,FALSE,33,6,1190,"A4B3D5_2",6,"2.0",2,0
"tLSjGm6Dqri4nsVHHnkVL8G3V4","VYycXONC2I51jJfJmnalaU8NU2",1144362,710,FALSE,34,2,1510,"A4B5E3_2",6,"2.0",3,0
"tLSjGm6Dqri4nsVHHnkVL8G3V4","VYycXONC2I51jJfJmnalaU8NU2",1145964,711,FALSE,35,1,1600,"A3C4D5_2",6,"2.0",1,1
"tLSjGm6Dqri4nsVHHnkVL8G3V4","VYycXONC2I51jJfJmnalaU8NU2",1146955,712,FALSE,36,6,989,"A3C5E4_2",6,"2.0",3,0
"tLSjGm6Dqri4nsVHHnkVL8G3V4","VYycXONC2I51jJfJmnalaU8NU2",1154212,713,FALSE,37,1,7254,"A4D3E5_2",6,"2.0",1,1
"tLSjGm6Dqri4nsVHHnkVL8G3V4","VYycXONC2I51jJfJmnalaU8NU2",1162750,714,FALSE,38,7,8537,"B5C4D3_1",6,"2.0",7,1
"tLSjGm6Dqri4nsVHHnkVL8G3V4","VYycXONC2I51jJfJmnalaU8NU2",1166639,715,FALSE,39,3,3887,"B3C4E5_1",6,"2.0",4,0
"tLSjGm6Dqri4nsVHHnkVL8G3V4","VYycXONC2I51jJfJmnalaU8NU2",1167710,716,FALSE,40,6,1068,"B3D5E4_1",6,"2.0",1,0
"tLSjGm6Dqri4nsVHHnkVL8G3V4","VYycXONC2I51jJfJmnalaU8NU2",1169046,717,FALSE,41,7,1333,"C4D3E5_1",6,"2.0",3,0
"W6lW7tpcdPnwidSMJyh0KrZtZ9","FC4UOASx57sEFVAZBJFSxdRL5X",1128636,335,FALSE,0,5,2268,"A4_3",12,"3.0",3,0
"W6lW7tpcdPnwidSMJyh0KrZtZ9","FC4UOASx57sEFVAZBJFSxdRL5X",1130140,336,FALSE,1,5,1495,"B5_2",12,"3.0",7,0
"W6lW7tpcdPnwidSMJyh0KrZtZ9","FC4UOASx57sEFVAZBJFSxdRL5X",1131492,337,FALSE,2,5,1344,"C1_2",12,"3.0",4,0
"W6lW7tpcdPnwidSMJyh0KrZtZ9","FC4UOASx57sEFVAZBJFSxdRL5X",1132956,338,FALSE,3,5,1456,"D2_2",12,"3.0",1,0
"W6lW7tpcdPnwidSMJyh0KrZtZ9","FC4UOASx57sEFVAZBJFSxdRL5X",1134468,339,FALSE,4,5,1505,"E3_2",12,"3.0",3,0
"W6lW7tpcdPnwidSMJyh0KrZtZ9","FC4UOASx57sEFVAZBJFSxdRL5X",1136100,340,FALSE,5,5,1625,"C1E5",12,"3.0",4,0
"W6lW7tpcdPnwidSMJyh0KrZtZ9","FC4UOASx57sEFVAZBJFSxdRL5X",1137555,341,FALSE,6,5,1447,"D2E1",12,"3.0",5,1
"W6lW7tpcdPnwidSMJyh0KrZtZ9","FC4UOASx57sEFVAZBJFSxdRL5X",1138947,342,FALSE,7,5,1384,"A3B2",12,"3.0",7,0
"W6lW7tpcdPnwidSMJyh0KrZtZ9","FC4UOASx57sEFVAZBJFSxdRL5X",1140138,343,FALSE,8,5,1183,"A4C3",12,"3.0",8,0
"W6lW7tpcdPnwidSMJyh0KrZtZ9","FC4UOASx57sEFVAZBJFSxdRL5X",1141227,344,FALSE,9,5,1082,"A1E5",12,"3.0",8,0
"W6lW7tpcdPnwidSMJyh0KrZtZ9","FC4UOASx57sEFVAZBJFSxdRL5X",1142258,345,FALSE,10,5,1023,"B2C1",12,"3.0",2,0
"W6lW7tpcdPnwidSMJyh0KrZtZ9","FC4UOASx57sEFVAZBJFSxdRL5X",1143258,346,FALSE,11,5,993,"B3D2",12,"3.0",3,0
"W6lW7tpcdPnwidSMJyh0KrZtZ9","FC4UOASx57sEFVAZBJFSxdRL5X",1144251,347,FALSE,12,5,986,"B4E3",12,"3.0",5,1
"W6lW7tpcdPnwidSMJyh0KrZtZ9","FC4UOASx57sEFVAZBJFSxdRL5X",1145298,348,FALSE,13,5,1040,"C5D4",12,"3.0",7,0
"W6lW7tpcdPnwidSMJyh0KrZtZ9","FC4UOASx57sEFVAZBJFSxdRL5X",1146226,349,FALSE,14,5,921,"X_12",12,"3.0",8,0
"W6lW7tpcdPnwidSMJyh0KrZtZ9","FC4UOASx57sEFVAZBJFSxdRL5X",1147178,350,FALSE,15,5,945,"Y_12",12,"3.0",2,0
"W6lW7tpcdPnwidSMJyh0KrZtZ9","FC4UOASx57sEFVAZBJFSxdRL5X",1148186,351,FALSE,16,5,1000,"Z_12",12,"3.0",4,0
"W6lW7tpcdPnwidSMJyh0KrZtZ9","FC4UOASx57sEFVAZBJFSxdRL5X",1149098,352,FALSE,17,5,904,"A4C1D2_2",12,"3.0",8,0
"W6lW7tpcdPnwidSMJyh0KrZtZ9","FC4UOASx57sEFVAZBJFSxdRL5X",1150697,353,FALSE,18,5,1591,"B3C1E2",12,"3.0",2,0
"W6lW7tpcdPnwidSMJyh0KrZtZ9","FC4UOASx57sEFVAZBJFSxdRL5X",1151689,354,FALSE,19,5,985,"A1B2C4",12,"3.0",7,0
"W6lW7tpcdPnwidSMJyh0KrZtZ9","FC4UOASx57sEFVAZBJFSxdRL5X",1152697,355,FALSE,20,5,1000,"A2C1D5",12,"3.0",5,1
"W6lW7tpcdPnwidSMJyh0KrZtZ9","FC4UOASx57sEFVAZBJFSxdRL5X",1153849,356,FALSE,21,5,1144,"C1D2E3",12,"3.0",5,1
"W6lW7tpcdPnwidSMJyh0KrZtZ9","FC4UOASx57sEFVAZBJFSxdRL5X",1157192,357,FALSE,22,5,3336,"A4B5E2",12,"3.0",6,0
"W6lW7tpcdPnwidSMJyh0KrZtZ9","FC4UOASx57sEFVAZBJFSxdRL5X",1158600,358,FALSE,23,5,1399,"A3C4E1",12,"3.0",7,0
"W6lW7tpcdPnwidSMJyh0KrZtZ9","FC4UOASx57sEFVAZBJFSxdRL5X",1160072,359,FALSE,24,5,1464,"A3D5E2",12,"3.0",3,0
"W6lW7tpcdPnwidSMJyh0KrZtZ9","FC4UOASx57sEFVAZBJFSxdRL5X",1161176,360,FALSE,25,5,1096,"A4C1E3",12,"3.0",2,0
"W6lW7tpcdPnwidSMJyh0KrZtZ9","FC4UOASx57sEFVAZBJFSxdRL5X",1162416,361,FALSE,26,5,1231,"B4C5E2",12,"3.0",8,0
"W6lW7tpcdPnwidSMJyh0KrZtZ9","FC4UOASx57sEFVAZBJFSxdRL5X",1163687,362,FALSE,27,5,1263,"A2B5D3",12,"3.0",1,0
"W6lW7tpcdPnwidSMJyh0KrZtZ9","FC4UOASx57sEFVAZBJFSxdRL5X",1164927,363,FALSE,28,5,1233,"B5D1E4",12,"3.0",4,0
"W6lW7tpcdPnwidSMJyh0KrZtZ9","FC4UOASx57sEFVAZBJFSxdRL5X",1166431,364,FALSE,29,5,1497,"B2C3D4",12,"3.0",3,0
"W6lW7tpcdPnwidSMJyh0KrZtZ9","FC4UOASx57sEFVAZBJFSxdRL5X",1168127,365,FALSE,30,5,1688,"A2C3E5",12,"3.0",6,0
"W6lW7tpcdPnwidSMJyh0KrZtZ9","FC4UOASx57sEFVAZBJFSxdRL5X",1169359,366,FALSE,31,5,1225,"C1D4E3",12,"3.0",1,0
"W6lW7tpcdPnwidSMJyh0KrZtZ9","FC4UOASx57sEFVAZBJFSxdRL5X",1170382,367,FALSE,32,5,1016,"A4B5C3_3",12,"3.0",6,0
"W6lW7tpcdPnwidSMJyh0KrZtZ9","FC4UOASx57sEFVAZBJFSxdRL5X",1172089,368,FALSE,33,5,1698,"A3B4D5_3",12,"3.0",6,0
"W6lW7tpcdPnwidSMJyh0KrZtZ9","FC4UOASx57sEFVAZBJFSxdRL5X",1173375,369,FALSE,34,5,1280,"A3B5E4_3",12,"3.0",2,0
"W6lW7tpcdPnwidSMJyh0KrZtZ9","FC4UOASx57sEFVAZBJFSxdRL5X",1174495,370,FALSE,35,5,1113,"A4C3D5_3",12,"3.0",1,0
"W6lW7tpcdPnwidSMJyh0KrZtZ9","FC4UOASx57sEFVAZBJFSxdRL5X",1175551,371,FALSE,36,5,1049,"A4C5E3_3",12,"3.0",6,0
"W6lW7tpcdPnwidSMJyh0KrZtZ9","FC4UOASx57sEFVAZBJFSxdRL5X",1177182,372,FALSE,37,5,1624,"A3D4E5_3",12,"3.0",4,0
"W6lW7tpcdPnwidSMJyh0KrZtZ9","FC4UOASx57sEFVAZBJFSxdRL5X",1179007,373,FALSE,38,5,1817,"B5C4D3_2",12,"3.0",7,0
"W6lW7tpcdPnwidSMJyh0KrZtZ9","FC4UOASx57sEFVAZBJFSxdRL5X",1180998,374,FALSE,39,5,1984,"B3C4E5_2",12,"3.0",2,0
"W6lW7tpcdPnwidSMJyh0KrZtZ9","FC4UOASx57sEFVAZBJFSxdRL5X",1183142,375,FALSE,40,5,2136,"B3D5E4_2",12,"3.0",3,0
"W6lW7tpcdPnwidSMJyh0KrZtZ9","FC4UOASx57sEFVAZBJFSxdRL5X",1184517,376,FALSE,41,5,1369,"C4D3E5_2",12,"3.0",1,0
"Ox2JDobTVCybEB6T15i8Cf82Z1","6tVhik6yMDBEBQwVOgIqfCrq0H",2039615,1156,FALSE,0,4,1377,"A4_1",16,"2.0",2,0
"Ox2JDobTVCybEB6T15i8Cf82Z1","6tVhik6yMDBEBQwVOgIqfCrq0H",2041011,1157,FALSE,1,8,1386,"B5_3",16,"2.0",3,0
"Ox2JDobTVCybEB6T15i8Cf82Z1","6tVhik6yMDBEBQwVOgIqfCrq0H",2042525,1158,FALSE,2,2,1505,"C1_3",16,"2.0",1,0
"Ox2JDobTVCybEB6T15i8Cf82Z1","6tVhik6yMDBEBQwVOgIqfCrq0H",2043956,1159,FALSE,3,5,1420,"D2_3",16,"2.0",3,0
"Ox2JDobTVCybEB6T15i8Cf82Z1","6tVhik6yMDBEBQwVOgIqfCrq0H",2045237,1160,FALSE,4,7,1270,"E3_3",16,"2.0",1,0
"Ox2JDobTVCybEB6T15i8Cf82Z1","6tVhik6yMDBEBQwVOgIqfCrq0H",2046369,1161,FALSE,5,6,1121,"C1D5",16,"2.0",7,0
"Ox2JDobTVCybEB6T15i8Cf82Z1","6tVhik6yMDBEBQwVOgIqfCrq0H",2047333,1162,FALSE,6,5,954,"C2E1",16,"2.0",4,0
"Ox2JDobTVCybEB6T15i8Cf82Z1","6tVhik6yMDBEBQwVOgIqfCrq0H",2048213,1163,FALSE,7,4,872,"D3E2",16,"2.0",1,0
"Ox2JDobTVCybEB6T15i8Cf82Z1","6tVhik6yMDBEBQwVOgIqfCrq0H",2049163,1164,FALSE,8,3,941,"A4B3",16,"2.0",3,1
"Ox2JDobTVCybEB6T15i8Cf82Z1","6tVhik6yMDBEBQwVOgIqfCrq0H",2051308,1165,FALSE,9,8,2136,"A1D5",16,"2.0",5,0
"Ox2JDobTVCybEB6T15i8Cf82Z1","6tVhik6yMDBEBQwVOgIqfCrq0H",2053205,1166,FALSE,10,5,1887,"A2E1",16,"2.0",7,0
"Ox2JDobTVCybEB6T15i8Cf82Z1","6tVhik6yMDBEBQwVOgIqfCrq0H",2054302,1167,FALSE,11,4,1086,"B3C2",16,"2.0",8,0
"Ox2JDobTVCybEB6T15i8Cf82Z1","6tVhik6yMDBEBQwVOgIqfCrq0H",2056949,1168,FALSE,12,7,2637,"B4D3",16,"2.0",6,0
"Ox2JDobTVCybEB6T15i8Cf82Z1","6tVhik6yMDBEBQwVOgIqfCrq0H",2059159,1169,FALSE,13,6,2202,"B5E4",16,"2.0",8,0
"Ox2JDobTVCybEB6T15i8Cf82Z1","6tVhik6yMDBEBQwVOgIqfCrq0H",2060139,1170,FALSE,14,4,971,"X_16",16,"2.0",2,0
"Ox2JDobTVCybEB6T15i8Cf82Z1","6tVhik6yMDBEBQwVOgIqfCrq0H",2061205,1171,FALSE,15,3,1057,"Y_16",16,"2.0",3,1
"Ox2JDobTVCybEB6T15i8Cf82Z1","6tVhik6yMDBEBQwVOgIqfCrq0H",2062302,1172,FALSE,16,3,1088,"Z_16",16,"2.0",5,0
"Ox2JDobTVCybEB6T15i8Cf82Z1","6tVhik6yMDBEBQwVOgIqfCrq0H",2063321,1173,FALSE,17,7,1009,"A3D2E1",16,"2.0",5,0
"Ox2JDobTVCybEB6T15i8Cf82Z1","6tVhik6yMDBEBQwVOgIqfCrq0H",2064565,1174,FALSE,18,7,1235,"A2B4D1",16,"2.0",8,0
"Ox2JDobTVCybEB6T15i8Cf82Z1","6tVhik6yMDBEBQwVOgIqfCrq0H",2065831,1175,FALSE,19,6,1256,"B1C5D2",16,"2.0",5,0
"Ox2JDobTVCybEB6T15i8Cf82Z1","6tVhik6yMDBEBQwVOgIqfCrq0H",2067808,1176,FALSE,20,7,1967,"B2D3E1",16,"2.0",4,0
"Ox2JDobTVCybEB6T15i8Cf82Z1","6tVhik6yMDBEBQwVOgIqfCrq0H",2068924,1177,FALSE,21,7,1106,"A2B1E4",16,"2.0",8,0
"Ox2JDobTVCybEB6T15i8Cf82Z1","6tVhik6yMDBEBQwVOgIqfCrq0H",2069836,1178,FALSE,22,5,903,"A4B5C1",16,"2.0",2,0
"Ox2JDobTVCybEB6T15i8Cf82Z1","6tVhik6yMDBEBQwVOgIqfCrq0H",2070785,1179,FALSE,23,4,939,"A3C4D2",16,"2.0",7,0
"Ox2JDobTVCybEB6T15i8Cf82Z1","6tVhik6yMDBEBQwVOgIqfCrq0H",2071749,1180,FALSE,24,7,954,"A3C1D5",16,"2.0",5,0
"Ox2JDobTVCybEB6T15i8Cf82Z1","6tVhik6yMDBEBQwVOgIqfCrq0H",2073315,1181,FALSE,25,8,1555,"A3D2E4",16,"2.0",5,0
"Ox2JDobTVCybEB6T15i8Cf82Z1","6tVhik6yMDBEBQwVOgIqfCrq0H",2075459,1182,FALSE,26,8,2134,"A1B3C5",16,"2.0",6,0
"Ox2JDobTVCybEB6T15i8Cf82Z1","6tVhik6yMDBEBQwVOgIqfCrq0H",2076873,1183,FALSE,27,7,1405,"B4D3E2",16,"2.0",7,1
"Ox2JDobTVCybEB6T15i8Cf82Z1","6tVhik6yMDBEBQwVOgIqfCrq0H",2078820,1184,FALSE,28,8,1935,"B4C1E5",16,"2.0",3,0
"Ox2JDobTVCybEB6T15i8Cf82Z1","6tVhik6yMDBEBQwVOgIqfCrq0H",2080184,1185,FALSE,29,8,1354,"A1C5D3",16,"2.0",2,0
"Ox2JDobTVCybEB6T15i8Cf82Z1","6tVhik6yMDBEBQwVOgIqfCrq0H",2081066,1186,FALSE,30,4,871,"C5D2E4",16,"2.0",8,0
"Ox2JDobTVCybEB6T15i8Cf82Z1","6tVhik6yMDBEBQwVOgIqfCrq0H",2082596,1187,FALSE,31,5,1520,"B1D3E4",16,"2.0",1,0
"Ox2JDobTVCybEB6T15i8Cf82Z1","6tVhik6yMDBEBQwVOgIqfCrq0H",2083461,1188,FALSE,32,6,855,"A4B5C3_4",16,"2.0",4,0
"Ox2JDobTVCybEB6T15i8Cf82Z1","6tVhik6yMDBEBQwVOgIqfCrq0H",2084707,1189,FALSE,33,4,1236,"A3B4D5_4",16,"2.0",3,0
"Ox2JDobTVCybEB6T15i8Cf82Z1","6tVhik6yMDBEBQwVOgIqfCrq0H",2086103,1190,FALSE,34,6,1388,"A3B5E4_4",16,"2.0",6,1
"Ox2JDobTVCybEB6T15i8Cf82Z1","6tVhik6yMDBEBQwVOgIqfCrq0H",2087351,1191,FALSE,35,8,1238,"A4C3D5_4",16,"2.0",1,0
"Ox2JDobTVCybEB6T15i8Cf82Z1","6tVhik6yMDBEBQwVOgIqfCrq0H",2088483,1192,FALSE,36,7,1122,"A4C5E3_4",16,"2.0",6,0
"Ox2JDobTVCybEB6T15i8Cf82Z1","6tVhik6yMDBEBQwVOgIqfCrq0H",2089415,1193,FALSE,37,4,921,"A3D4E5_4",16,"2.0",6,0
"Ox2JDobTVCybEB6T15i8Cf82Z1","6tVhik6yMDBEBQwVOgIqfCrq0H",2090231,1194,FALSE,38,5,808,"B4C5D3_3",16,"2.0",2,0
"Ox2JDobTVCybEB6T15i8Cf82Z1","6tVhik6yMDBEBQwVOgIqfCrq0H",2090996,1195,FALSE,39,6,756,"B5C3E4_3",16,"2.0",1,0
"Ox2JDobTVCybEB6T15i8Cf82Z1","6tVhik6yMDBEBQwVOgIqfCrq0H",2091826,1196,FALSE,40,7,820,"B5D4E3_3",16,"2.0",6,0
"Ox2JDobTVCybEB6T15i8Cf82Z1","6tVhik6yMDBEBQwVOgIqfCrq0H",2092741,1197,FALSE,41,8,905,"C3D4E5_3",16,"2.0",4,0
"WiMJRTZtpieHRm3ClAWipoHr0C","SGb3o2ONPK215NplFlfdAm7wub",620029,51,FALSE,0,4,8050,"A3_4",7,"2.0",4,1
"WiMJRTZtpieHRm3ClAWipoHr0C","SGb3o2ONPK215NplFlfdAm7wub",625315,52,FALSE,1,5,5284,"B4_1",7,"2.0",4,0
"WiMJRTZtpieHRm3ClAWipoHr0C","SGb3o2ONPK215NplFlfdAm7wub",652932,53,FALSE,2,1,27615,"C5_1",7,"2.0",7,0
"WiMJRTZtpieHRm3ClAWipoHr0C","SGb3o2ONPK215NplFlfdAm7wub",657321,54,FALSE,3,8,4388,"D1_1",7,"2.0",8,1
"WiMJRTZtpieHRm3ClAWipoHr0C","SGb3o2ONPK215NplFlfdAm7wub",662777,55,FALSE,4,6,5454,"E2_1",7,"2.0",6,1
"WiMJRTZtpieHRm3ClAWipoHr0C","SGb3o2ONPK215NplFlfdAm7wub",676289,56,FALSE,5,8,13510,"D1E4",7,"2.0",8,1
"WiMJRTZtpieHRm3ClAWipoHr0C","SGb3o2ONPK215NplFlfdAm7wub",681521,57,FALSE,6,4,5230,"A2B5",7,"2.0",2,0
"WiMJRTZtpieHRm3ClAWipoHr0C","SGb3o2ONPK215NplFlfdAm7wub",694017,58,FALSE,7,8,12493,"A3C1",7,"2.0",3,0
"WiMJRTZtpieHRm3ClAWipoHr0C","SGb3o2ONPK215NplFlfdAm7wub",704835,59,FALSE,8,1,10816,"A4D2",7,"2.0",5,0
"WiMJRTZtpieHRm3ClAWipoHr0C","SGb3o2ONPK215NplFlfdAm7wub",712248,60,FALSE,9,8,7411,"B1C4",7,"2.0",8,1
"WiMJRTZtpieHRm3ClAWipoHr0C","SGb3o2ONPK215NplFlfdAm7wub",717974,61,FALSE,10,3,5724,"B2D5",7,"2.0",2,0
"WiMJRTZtpieHRm3ClAWipoHr0C","SGb3o2ONPK215NplFlfdAm7wub",725085,62,FALSE,11,4,7110,"B3E1",7,"2.0",4,1
"WiMJRTZtpieHRm3ClAWipoHr0C","SGb3o2ONPK215NplFlfdAm7wub",736984,63,FALSE,12,5,11897,"C4D2",7,"2.0",5,1
"WiMJRTZtpieHRm3ClAWipoHr0C","SGb3o2ONPK215NplFlfdAm7wub",747542,64,FALSE,13,3,10556,"C5E3",7,"2.0",8,0
"WiMJRTZtpieHRm3ClAWipoHr0C","SGb3o2ONPK215NplFlfdAm7wub",778543,65,TRUE,14,NA,31001,"X_7",7,"2.0",5,NA
"WiMJRTZtpieHRm3ClAWipoHr0C","SGb3o2ONPK215NplFlfdAm7wub",784943,66,FALSE,15,6,6395,"Y_7",7,"2.0",4,0
"WiMJRTZtpieHRm3ClAWipoHr0C","SGb3o2ONPK215NplFlfdAm7wub",790206,67,FALSE,16,6,5262,"Z_7",7,"2.0",8,0
"WiMJRTZtpieHRm3ClAWipoHr0C","SGb3o2ONPK215NplFlfdAm7wub",802418,68,FALSE,17,6,12210,"A3B1E2",7,"2.0",6,1
"WiMJRTZtpieHRm3ClAWipoHr0C","SGb3o2ONPK215NplFlfdAm7wub",820319,69,FALSE,18,7,17898,"B4C2E1",7,"2.0",7,1
"WiMJRTZtpieHRm3ClAWipoHr0C","SGb3o2ONPK215NplFlfdAm7wub",831437,70,FALSE,19,3,11116,"A2B1C5",7,"2.0",3,1
"WiMJRTZtpieHRm3ClAWipoHr0C","SGb3o2ONPK215NplFlfdAm7wub",837631,71,FALSE,20,6,6193,"B1C2D3",7,"2.0",2,0
"WiMJRTZtpieHRm3ClAWipoHr0C","SGb3o2ONPK215NplFlfdAm7wub",846747,72,FALSE,21,4,9114,"C2D1E4",7,"2.0",8,0
"WiMJRTZtpieHRm3ClAWipoHr0C","SGb3o2ONPK215NplFlfdAm7wub",856455,73,FALSE,22,1,9706,"A3B4E1",7,"2.0",1,1
"WiMJRTZtpieHRm3ClAWipoHr0C","SGb3o2ONPK215NplFlfdAm7wub",867197,74,FALSE,23,1,10740,"A3C5E2",7,"2.0",4,0
"WiMJRTZtpieHRm3ClAWipoHr0C","SGb3o2ONPK215NplFlfdAm7wub",874455,75,FALSE,24,6,7257,"A4C1D3",7,"2.0",3,0
"WiMJRTZtpieHRm3ClAWipoHr0C","SGb3o2ONPK215NplFlfdAm7wub",891299,76,FALSE,25,4,16842,"A4C2E5",7,"2.0",6,0
"WiMJRTZtpieHRm3ClAWipoHr0C","SGb3o2ONPK215NplFlfdAm7wub",905854,77,FALSE,26,6,14554,"B5C3E1",7,"2.0",1,0
"WiMJRTZtpieHRm3ClAWipoHr0C","SGb3o2ONPK215NplFlfdAm7wub",914961,78,FALSE,27,3,9105,"A1B5D4",7,"2.0",6,0
"WiMJRTZtpieHRm3ClAWipoHr0C","SGb3o2ONPK215NplFlfdAm7wub",922882,79,FALSE,28,6,7919,"B3D2E4",7,"2.0",6,1
"WiMJRTZtpieHRm3ClAWipoHr0C","SGb3o2ONPK215NplFlfdAm7wub",931551,80,FALSE,29,1,8667,"B1C3D5",7,"2.0",2,0
"WiMJRTZtpieHRm3ClAWipoHr0C","SGb3o2ONPK215NplFlfdAm7wub",946314,81,FALSE,30,1,14762,"A1C4E3",7,"2.0",1,1
"WiMJRTZtpieHRm3ClAWipoHr0C","SGb3o2ONPK215NplFlfdAm7wub",953303,82,FALSE,31,6,6987,"C2D4E5",7,"2.0",6,1
"WiMJRTZtpieHRm3ClAWipoHr0C","SGb3o2ONPK215NplFlfdAm7wub",967151,83,FALSE,32,6,13846,"A4B3C5_2",7,"2.0",4,0
"WiMJRTZtpieHRm3ClAWipoHr0C","SGb3o2ONPK215NplFlfdAm7wub",977158,84,FALSE,33,7,10006,"A4B5D3_2",7,"2.0",7,1
"WiMJRTZtpieHRm3ClAWipoHr0C","SGb3o2ONPK215NplFlfdAm7wub",985379,85,FALSE,34,4,8219,"A3B4E5_2",7,"2.0",2,0
"WiMJRTZtpieHRm3ClAWipoHr0C","SGb3o2ONPK215NplFlfdAm7wub",991644,86,FALSE,35,2,6264,"A3C5D4_2",7,"2.0",3,0
"WiMJRTZtpieHRm3ClAWipoHr0C","SGb3o2ONPK215NplFlfdAm7wub",998748,87,FALSE,36,1,7103,"A4C3E5_2",7,"2.0",1,1
"WiMJRTZtpieHRm3ClAWipoHr0C","SGb3o2ONPK215NplFlfdAm7wub",1014652,88,FALSE,37,3,15902,"A4D5E3_2",7,"2.0",3,1
"WiMJRTZtpieHRm3ClAWipoHr0C","SGb3o2ONPK215NplFlfdAm7wub",1022151,89,FALSE,38,7,7497,"B3C4D5_2",7,"2.0",1,0
"WiMJRTZtpieHRm3ClAWipoHr0C","SGb3o2ONPK215NplFlfdAm7wub",1033501,90,FALSE,39,7,11348,"B3C5E4_2",7,"2.0",7,1
"WiMJRTZtpieHRm3ClAWipoHr0C","SGb3o2ONPK215NplFlfdAm7wub",1043062,91,FALSE,40,4,9560,"B4D3E5_2",7,"2.0",4,1
"WiMJRTZtpieHRm3ClAWipoHr0C","SGb3o2ONPK215NplFlfdAm7wub",1048871,92,FALSE,41,7,5807,"C4D5E3_2",7,"2.0",1,0
"DebsBC0abituuuNqZbrWt3jR91","u09piBR9Rt2XBjdzMPHEKX1BQv",408055,59,FALSE,0,3,7790,"A2_3",14,"3.0",1,0
"DebsBC0abituuuNqZbrWt3jR91","u09piBR9Rt2XBjdzMPHEKX1BQv",411647,60,FALSE,1,2,3588,"B3_3",14,"3.0",3,0
"DebsBC0abituuuNqZbrWt3jR91","u09piBR9Rt2XBjdzMPHEKX1BQv",413983,61,FALSE,2,5,2333,"C4_3",14,"3.0",1,0
"DebsBC0abituuuNqZbrWt3jR91","u09piBR9Rt2XBjdzMPHEKX1BQv",416183,62,FALSE,3,6,2197,"D5_3",14,"3.0",7,0
"DebsBC0abituuuNqZbrWt3jR91","u09piBR9Rt2XBjdzMPHEKX1BQv",418223,63,FALSE,4,6,2036,"E1_3",14,"3.0",4,0
"DebsBC0abituuuNqZbrWt3jR91","u09piBR9Rt2XBjdzMPHEKX1BQv",419958,64,FALSE,5,4,1732,"C1D3",14,"3.0",1,0
"DebsBC0abituuuNqZbrWt3jR91","u09piBR9Rt2XBjdzMPHEKX1BQv",421663,65,FALSE,6,5,1701,"C2E4",14,"3.0",3,0
"DebsBC0abituuuNqZbrWt3jR91","u09piBR9Rt2XBjdzMPHEKX1BQv",423815,66,FALSE,7,6,2148,"D3E5",14,"3.0",4,0
"DebsBC0abituuuNqZbrWt3jR91","u09piBR9Rt2XBjdzMPHEKX1BQv",425455,67,FALSE,8,4,1637,"A4B1",14,"3.0",5,0
"DebsBC0abituuuNqZbrWt3jR91","u09piBR9Rt2XBjdzMPHEKX1BQv",427358,68,FALSE,9,3,1899,"A1D3",14,"3.0",8,0
"DebsBC0abituuuNqZbrWt3jR91","u09piBR9Rt2XBjdzMPHEKX1BQv",429119,69,FALSE,10,4,1757,"A2E4",14,"3.0",6,0
"DebsBC0abituuuNqZbrWt3jR91","u09piBR9Rt2XBjdzMPHEKX1BQv",430710,70,FALSE,11,5,1588,"B3C5",14,"3.0",8,0
"DebsBC0abituuuNqZbrWt3jR91","u09piBR9Rt2XBjdzMPHEKX1BQv",432726,71,FALSE,12,3,2012,"B4D1",14,"3.0",2,0
"DebsBC0abituuuNqZbrWt3jR91","u09piBR9Rt2XBjdzMPHEKX1BQv",434575,72,FALSE,13,6,1844,"B5E2",14,"3.0",3,0
"DebsBC0abituuuNqZbrWt3jR91","u09piBR9Rt2XBjdzMPHEKX1BQv",436358,73,FALSE,14,6,1777,"X_14",14,"3.0",5,0
"DebsBC0abituuuNqZbrWt3jR91","u09piBR9Rt2XBjdzMPHEKX1BQv",438078,74,FALSE,15,4,1716,"Y_14",14,"3.0",7,0
"DebsBC0abituuuNqZbrWt3jR91","u09piBR9Rt2XBjdzMPHEKX1BQv",440230,75,FALSE,16,5,2148,"Z_14",14,"3.0",8,0
"DebsBC0abituuuNqZbrWt3jR91","u09piBR9Rt2XBjdzMPHEKX1BQv",441942,76,FALSE,17,6,1708,"A4C2E1",14,"3.0",5,0
"DebsBC0abituuuNqZbrWt3jR91","u09piBR9Rt2XBjdzMPHEKX1BQv",443990,77,FALSE,18,7,2044,"A2B5C1",14,"3.0",4,0
"DebsBC0abituuuNqZbrWt3jR91","u09piBR9Rt2XBjdzMPHEKX1BQv",445838,78,FALSE,19,7,1845,"B1C3D2",14,"3.0",8,0
"DebsBC0abituuuNqZbrWt3jR91","u09piBR9Rt2XBjdzMPHEKX1BQv",448415,79,FALSE,20,2,2573,"C2D4E1",14,"3.0",2,1
"DebsBC0abituuuNqZbrWt3jR91","u09piBR9Rt2XBjdzMPHEKX1BQv",450118,80,FALSE,21,3,1700,"A2C1E5",14,"3.0",7,0
"DebsBC0abituuuNqZbrWt3jR91","u09piBR9Rt2XBjdzMPHEKX1BQv",453310,81,FALSE,22,1,3188,"A3B5C1",14,"3.0",5,0
"DebsBC0abituuuNqZbrWt3jR91","u09piBR9Rt2XBjdzMPHEKX1BQv",455638,82,FALSE,23,5,2324,"A4B2C3",14,"3.0",5,1
"DebsBC0abituuuNqZbrWt3jR91","u09piBR9Rt2XBjdzMPHEKX1BQv",457295,83,FALSE,24,4,1653,"A4B1D5",14,"3.0",6,0
"DebsBC0abituuuNqZbrWt3jR91","u09piBR9Rt2XBjdzMPHEKX1BQv",459342,84,FALSE,25,6,2043,"A3C2E4",14,"3.0",7,0
"DebsBC0abituuuNqZbrWt3jR91","u09piBR9Rt2XBjdzMPHEKX1BQv",461606,85,FALSE,26,7,2260,"A1B5C4",14,"3.0",3,0
"DebsBC0abituuuNqZbrWt3jR91","u09piBR9Rt2XBjdzMPHEKX1BQv",464454,86,FALSE,27,8,2844,"B3D4E2",14,"3.0",2,0
"DebsBC0abituuuNqZbrWt3jR91","u09piBR9Rt2XBjdzMPHEKX1BQv",466566,87,FALSE,28,7,2108,"B3C1E5",14,"3.0",8,0
"DebsBC0abituuuNqZbrWt3jR91","u09piBR9Rt2XBjdzMPHEKX1BQv",467958,88,FALSE,29,4,1389,"A1C4D3",14,"3.0",1,0
"DebsBC0abituuuNqZbrWt3jR91","u09piBR9Rt2XBjdzMPHEKX1BQv",470007,89,FALSE,30,2,2045,"C4D2E5",14,"3.0",4,0
"DebsBC0abituuuNqZbrWt3jR91","u09piBR9Rt2XBjdzMPHEKX1BQv",471654,90,FALSE,31,4,1643,"B1D5E3",14,"3.0",3,0
"DebsBC0abituuuNqZbrWt3jR91","u09piBR9Rt2XBjdzMPHEKX1BQv",473550,91,FALSE,32,2,1892,"A3B5C4_4",14,"3.0",6,0
"DebsBC0abituuuNqZbrWt3jR91","u09piBR9Rt2XBjdzMPHEKX1BQv",475398,92,FALSE,33,6,1844,"A4B3D5_4",14,"3.0",1,0
"DebsBC0abituuuNqZbrWt3jR91","u09piBR9Rt2XBjdzMPHEKX1BQv",476998,93,FALSE,34,7,1596,"A4B5E3_4",14,"3.0",6,0
"DebsBC0abituuuNqZbrWt3jR91","u09piBR9Rt2XBjdzMPHEKX1BQv",478510,94,FALSE,35,8,1508,"A3C4D5_4",14,"3.0",6,0
"DebsBC0abituuuNqZbrWt3jR91","u09piBR9Rt2XBjdzMPHEKX1BQv",480742,95,FALSE,36,6,2229,"A3C5E4_4",14,"3.0",2,0
"DebsBC0abituuuNqZbrWt3jR91","u09piBR9Rt2XBjdzMPHEKX1BQv",483174,96,FALSE,37,4,2428,"A4D3E5_4",14,"3.0",1,0
"DebsBC0abituuuNqZbrWt3jR91","u09piBR9Rt2XBjdzMPHEKX1BQv",487342,97,FALSE,38,2,4165,"B3C5D4_3",14,"3.0",6,0
"DebsBC0abituuuNqZbrWt3jR91","u09piBR9Rt2XBjdzMPHEKX1BQv",489118,98,FALSE,39,5,1773,"B4C3E5_3",14,"3.0",4,0
"DebsBC0abituuuNqZbrWt3jR91","u09piBR9Rt2XBjdzMPHEKX1BQv",491110,99,FALSE,40,6,1988,"B4D5E3_3",14,"3.0",7,0
"DebsBC0abituuuNqZbrWt3jR91","u09piBR9Rt2XBjdzMPHEKX1BQv",493542,100,FALSE,41,7,2428,"C5D3E4_3",14,"3.0",2,0
"pXLD8gCCp0YZ9CquUV1lQCIj5c","1zlxdqkJSNjpxeTuzeYDS0hy3y",1615321,1012,FALSE,0,7,5102,"A1_3",17,"3.0",7,1
"pXLD8gCCp0YZ9CquUV1lQCIj5c","1zlxdqkJSNjpxeTuzeYDS0hy3y",1621637,1013,FALSE,1,2,6315,"B2_4",17,"3.0",2,1
"pXLD8gCCp0YZ9CquUV1lQCIj5c","1zlxdqkJSNjpxeTuzeYDS0hy3y",1638860,1014,FALSE,2,3,17220,"C3_4",17,"3.0",3,1
"pXLD8gCCp0YZ9CquUV1lQCIj5c","1zlxdqkJSNjpxeTuzeYDS0hy3y",1645357,1015,FALSE,3,2,6495,"D4_4",17,"3.0",1,0
"pXLD8gCCp0YZ9CquUV1lQCIj5c","1zlxdqkJSNjpxeTuzeYDS0hy3y",1654188,1016,FALSE,4,3,8827,"E5_4",17,"3.0",3,1
"pXLD8gCCp0YZ9CquUV1lQCIj5c","1zlxdqkJSNjpxeTuzeYDS0hy3y",1661850,1017,FALSE,5,1,7660,"B1E2",17,"3.0",1,1
"pXLD8gCCp0YZ9CquUV1lQCIj5c","1zlxdqkJSNjpxeTuzeYDS0hy3y",1669384,1018,FALSE,6,7,7532,"C2D3",17,"3.0",7,1
"pXLD8gCCp0YZ9CquUV1lQCIj5c","1zlxdqkJSNjpxeTuzeYDS0hy3y",1686107,1019,FALSE,7,3,16721,"C3E4",17,"3.0",4,0
"pXLD8gCCp0YZ9CquUV1lQCIj5c","1zlxdqkJSNjpxeTuzeYDS0hy3y",1701620,1020,FALSE,8,1,15510,"D4E5",17,"3.0",1,1
"pXLD8gCCp0YZ9CquUV1lQCIj5c","1zlxdqkJSNjpxeTuzeYDS0hy3y",1710074,1021,FALSE,9,4,8451,"A1C2",17,"3.0",4,1
"pXLD8gCCp0YZ9CquUV1lQCIj5c","1zlxdqkJSNjpxeTuzeYDS0hy3y",1716261,1022,FALSE,10,5,6183,"A2D3",17,"3.0",5,1
"pXLD8gCCp0YZ9CquUV1lQCIj5c","1zlxdqkJSNjpxeTuzeYDS0hy3y",1734800,1023,FALSE,11,2,18537,"A3E4",17,"3.0",7,0
"pXLD8gCCp0YZ9CquUV1lQCIj5c","1zlxdqkJSNjpxeTuzeYDS0hy3y",1744484,1024,FALSE,12,5,9681,"B4C5",17,"3.0",8,0
"pXLD8gCCp0YZ9CquUV1lQCIj5c","1zlxdqkJSNjpxeTuzeYDS0hy3y",1756514,1025,FALSE,13,8,12029,"B5D1",17,"3.0",6,0
"pXLD8gCCp0YZ9CquUV1lQCIj5c","1zlxdqkJSNjpxeTuzeYDS0hy3y",1767790,1026,FALSE,14,1,11272,"X_17",17,"3.0",8,0
"pXLD8gCCp0YZ9CquUV1lQCIj5c","1zlxdqkJSNjpxeTuzeYDS0hy3y",1787411,1027,FALSE,15,3,19619,"Y_17",17,"3.0",2,0
"pXLD8gCCp0YZ9CquUV1lQCIj5c","1zlxdqkJSNjpxeTuzeYDS0hy3y",1805587,1028,FALSE,16,5,18174,"Z_17",17,"3.0",3,0
"pXLD8gCCp0YZ9CquUV1lQCIj5c","1zlxdqkJSNjpxeTuzeYDS0hy3y",1816130,1029,FALSE,17,8,10541,"A4D1E2_1",17,"3.0",4,0
"pXLD8gCCp0YZ9CquUV1lQCIj5c","1zlxdqkJSNjpxeTuzeYDS0hy3y",1823755,1030,FALSE,18,2,7624,"A1B5D2",17,"3.0",5,0
"pXLD8gCCp0YZ9CquUV1lQCIj5c","1zlxdqkJSNjpxeTuzeYDS0hy3y",1838124,1031,FALSE,19,8,14366,"A2C3E1",17,"3.0",8,1
"pXLD8gCCp0YZ9CquUV1lQCIj5c","1zlxdqkJSNjpxeTuzeYDS0hy3y",1845481,1032,FALSE,20,5,7356,"B1D4E2",17,"3.0",5,1
"pXLD8gCCp0YZ9CquUV1lQCIj5c","1zlxdqkJSNjpxeTuzeYDS0hy3y",1860574,1033,FALSE,21,5,15090,"A1B2E5",17,"3.0",4,0
"pXLD8gCCp0YZ9CquUV1lQCIj5c","1zlxdqkJSNjpxeTuzeYDS0hy3y",1870968,1034,FALSE,22,5,10391,"A3B4D2",17,"3.0",8,0
"pXLD8gCCp0YZ9CquUV1lQCIj5c","1zlxdqkJSNjpxeTuzeYDS0hy3y",1879434,1035,FALSE,23,7,8464,"A3C5D1",17,"3.0",2,0
"pXLD8gCCp0YZ9CquUV1lQCIj5c","1zlxdqkJSNjpxeTuzeYDS0hy3y",1890614,1036,FALSE,24,7,11178,"A3B2D4",17,"3.0",7,1
"pXLD8gCCp0YZ9CquUV1lQCIj5c","1zlxdqkJSNjpxeTuzeYDS0hy3y",1909470,1037,FALSE,25,5,18854,"A3B1E5",17,"3.0",5,1
"pXLD8gCCp0YZ9CquUV1lQCIj5c","1zlxdqkJSNjpxeTuzeYDS0hy3y",1930696,1038,FALSE,26,5,21223,"A2B4C3",17,"3.0",5,1
"pXLD8gCCp0YZ9CquUV1lQCIj5c","1zlxdqkJSNjpxeTuzeYDS0hy3y",1940034,1039,FALSE,27,8,9335,"B4D5E1",17,"3.0",6,0
"pXLD8gCCp0YZ9CquUV1lQCIj5c","1zlxdqkJSNjpxeTuzeYDS0hy3y",1953770,1040,FALSE,28,1,13735,"B5C2E3",17,"3.0",7,0
"pXLD8gCCp0YZ9CquUV1lQCIj5c","1zlxdqkJSNjpxeTuzeYDS0hy3y",1966234,1041,FALSE,29,4,12461,"A2C5D4",17,"3.0",3,0
"pXLD8gCCp0YZ9CquUV1lQCIj5c","1zlxdqkJSNjpxeTuzeYDS0hy3y",1983413,1042,FALSE,30,4,17178,"C3D1E4",17,"3.0",2,0
"pXLD8gCCp0YZ9CquUV1lQCIj5c","1zlxdqkJSNjpxeTuzeYDS0hy3y",1994897,1043,FALSE,31,8,11482,"B2D3E5",17,"3.0",8,1
"pXLD8gCCp0YZ9CquUV1lQCIj5c","1zlxdqkJSNjpxeTuzeYDS0hy3y",2002817,1044,FALSE,32,6,7918,"A3B4C5_5",17,"3.0",1,0
"pXLD8gCCp0YZ9CquUV1lQCIj5c","1zlxdqkJSNjpxeTuzeYDS0hy3y",2011549,1045,FALSE,33,6,8731,"A3B5D4_5",17,"3.0",4,0
"pXLD8gCCp0YZ9CquUV1lQCIj5c","1zlxdqkJSNjpxeTuzeYDS0hy3y",2026162,1046,FALSE,34,3,14610,"A4B3E5_5",17,"3.0",3,1
"pXLD8gCCp0YZ9CquUV1lQCIj5c","1zlxdqkJSNjpxeTuzeYDS0hy3y",2036684,1047,FALSE,35,6,10520,"A4C5D3_5",17,"3.0",6,1
"pXLD8gCCp0YZ9CquUV1lQCIj5c","1zlxdqkJSNjpxeTuzeYDS0hy3y",2051964,1048,FALSE,36,6,15277,"A3C4E5_5",17,"3.0",1,0
"pXLD8gCCp0YZ9CquUV1lQCIj5c","1zlxdqkJSNjpxeTuzeYDS0hy3y",2067900,1049,FALSE,37,7,15935,"A3D5E4_5",17,"3.0",6,0
"pXLD8gCCp0YZ9CquUV1lQCIj5c","1zlxdqkJSNjpxeTuzeYDS0hy3y",2085166,1050,FALSE,38,2,17263,"B5C3D4_3",17,"3.0",6,0
"pXLD8gCCp0YZ9CquUV1lQCIj5c","1zlxdqkJSNjpxeTuzeYDS0hy3y",2106058,1051,FALSE,39,1,20890,"B5C4E3_3",17,"3.0",2,0
"pXLD8gCCp0YZ9CquUV1lQCIj5c","1zlxdqkJSNjpxeTuzeYDS0hy3y",2129168,1052,FALSE,40,8,23108,"B3D4E5_3",17,"3.0",1,0
"pXLD8gCCp0YZ9CquUV1lQCIj5c","1zlxdqkJSNjpxeTuzeYDS0hy3y",2153579,1053,FALSE,41,7,24410,"C3D5E4_3",17,"3.0",6,0
"rDRcOADIKvymJ2TSyULLnxWo4D","6buOomZW04tVoIyk2wo6RJC08Q",14520523,195,FALSE,0,6,23124,"A3_3",19,"3.0",6,1
"rDRcOADIKvymJ2TSyULLnxWo4D","6buOomZW04tVoIyk2wo6RJC08Q",14529173,196,FALSE,1,4,8649,"B4_4",19,"3.0",4,1
"rDRcOADIKvymJ2TSyULLnxWo4D","6buOomZW04tVoIyk2wo6RJC08Q",14552673,197,FALSE,2,7,23499,"C5_4",19,"3.0",7,1
"rDRcOADIKvymJ2TSyULLnxWo4D","6buOomZW04tVoIyk2wo6RJC08Q",14564307,198,FALSE,3,2,11632,"D1_4",19,"3.0",2,1
"rDRcOADIKvymJ2TSyULLnxWo4D","6buOomZW04tVoIyk2wo6RJC08Q",14574597,199,FALSE,4,3,10289,"E2_4",19,"3.0",3,1
"rDRcOADIKvymJ2TSyULLnxWo4D","6buOomZW04tVoIyk2wo6RJC08Q",14593345,200,FALSE,5,1,18746,"B1E4",19,"3.0",1,1
"rDRcOADIKvymJ2TSyULLnxWo4D","6buOomZW04tVoIyk2wo6RJC08Q",14607128,201,FALSE,6,3,13781,"C2D5",19,"3.0",3,1
"rDRcOADIKvymJ2TSyULLnxWo4D","6buOomZW04tVoIyk2wo6RJC08Q",14631303,202,FALSE,7,3,24174,"C3E1",19,"3.0",3,1
"rDRcOADIKvymJ2TSyULLnxWo4D","6buOomZW04tVoIyk2wo6RJC08Q",14662014,203,FALSE,8,7,30708,"D4E2",19,"3.0",7,1
"rDRcOADIKvymJ2TSyULLnxWo4D","6buOomZW04tVoIyk2wo6RJC08Q",14676206,204,FALSE,9,1,14191,"A1C4",19,"3.0",1,1
"rDRcOADIKvymJ2TSyULLnxWo4D","6buOomZW04tVoIyk2wo6RJC08Q",14683616,205,FALSE,10,3,7409,"A2D5",19,"3.0",3,1
"rDRcOADIKvymJ2TSyULLnxWo4D","6buOomZW04tVoIyk2wo6RJC08Q",14703488,206,FALSE,11,4,19870,"A3E1",19,"3.0",4,1
"rDRcOADIKvymJ2TSyULLnxWo4D","6buOomZW04tVoIyk2wo6RJC08Q",14725286,207,FALSE,12,5,21797,"B4C2",19,"3.0",5,1
"rDRcOADIKvymJ2TSyULLnxWo4D","6buOomZW04tVoIyk2wo6RJC08Q",14753533,208,FALSE,13,8,28246,"B5D3",19,"3.0",7,0
"rDRcOADIKvymJ2TSyULLnxWo4D","6buOomZW04tVoIyk2wo6RJC08Q",14782063,209,FALSE,14,8,28529,"X_19",19,"3.0",8,1
"rDRcOADIKvymJ2TSyULLnxWo4D","6buOomZW04tVoIyk2wo6RJC08Q",14795449,210,FALSE,15,2,13385,"Y_19",19,"3.0",6,0
"rDRcOADIKvymJ2TSyULLnxWo4D","6buOomZW04tVoIyk2wo6RJC08Q",14823363,211,FALSE,16,8,27913,"Z_19",19,"3.0",8,1
"rDRcOADIKvymJ2TSyULLnxWo4D","6buOomZW04tVoIyk2wo6RJC08Q",14854366,212,TRUE,17,3,31001,"A3B2C1",19,"3.0",8,0
"rDRcOADIKvymJ2TSyULLnxWo4D","6buOomZW04tVoIyk2wo6RJC08Q",14858665,213,FALSE,18,3,4298,"A1B4E2",19,"3.0",2,0
"rDRcOADIKvymJ2TSyULLnxWo4D","6buOomZW04tVoIyk2wo6RJC08Q",14883118,214,FALSE,19,4,24451,"B2C5E1",19,"3.0",4,1
"rDRcOADIKvymJ2TSyULLnxWo4D","6buOomZW04tVoIyk2wo6RJC08Q",14906387,215,FALSE,20,7,23268,"A2D3E1",19,"3.0",5,0
"rDRcOADIKvymJ2TSyULLnxWo4D","6buOomZW04tVoIyk2wo6RJC08Q",14921277,216,FALSE,21,8,14888,"B1C2E4",19,"3.0",8,1
"rDRcOADIKvymJ2TSyULLnxWo4D","6buOomZW04tVoIyk2wo6RJC08Q",14941285,217,FALSE,22,5,20007,"A3B4E2",19,"3.0",5,1
"rDRcOADIKvymJ2TSyULLnxWo4D","6buOomZW04tVoIyk2wo6RJC08Q",14972286,218,TRUE,23,2,31000,"A3C5E1",19,"3.0",4,0
"rDRcOADIKvymJ2TSyULLnxWo4D","6buOomZW04tVoIyk2wo6RJC08Q",14989261,219,FALSE,24,7,16973,"A4C2D3",19,"3.0",8,0
"rDRcOADIKvymJ2TSyULLnxWo4D","6buOomZW04tVoIyk2wo6RJC08Q",15001013,220,FALSE,25,2,11751,"A4D1E5",19,"3.0",2,1
"rDRcOADIKvymJ2TSyULLnxWo4D","6buOomZW04tVoIyk2wo6RJC08Q",15018763,221,FALSE,26,8,17748,"B5C3D2",19,"3.0",7,0
"rDRcOADIKvymJ2TSyULLnxWo4D","6buOomZW04tVoIyk2wo6RJC08Q",15040249,222,FALSE,27,5,21485,"B5C1D4",19,"3.0",5,1
"rDRcOADIKvymJ2TSyULLnxWo4D","6buOomZW04tVoIyk2wo6RJC08Q",15071251,223,TRUE,28,NA,31000,"A1B3E4",19,"3.0",5,NA
"rDRcOADIKvymJ2TSyULLnxWo4D","6buOomZW04tVoIyk2wo6RJC08Q",15087051,224,FALSE,29,6,15799,"C3D5E2",19,"3.0",6,1
"rDRcOADIKvymJ2TSyULLnxWo4D","6buOomZW04tVoIyk2wo6RJC08Q",15103865,225,FALSE,30,6,16813,"B1C4E3",19,"3.0",7,0
"rDRcOADIKvymJ2TSyULLnxWo4D","6buOomZW04tVoIyk2wo6RJC08Q",15117928,226,FALSE,31,3,14062,"A1D4E5",19,"3.0",3,1
"rDRcOADIKvymJ2TSyULLnxWo4D","6buOomZW04tVoIyk2wo6RJC08Q",15128583,227,FALSE,32,8,10653,"A4B3C5_5",19,"3.0",2,0
"rDRcOADIKvymJ2TSyULLnxWo4D","6buOomZW04tVoIyk2wo6RJC08Q",15142931,228,FALSE,33,8,14347,"A4B5D3_5",19,"3.0",8,1
"rDRcOADIKvymJ2TSyULLnxWo4D","6buOomZW04tVoIyk2wo6RJC08Q",15157814,229,FALSE,34,1,14882,"A3B4E5_5",19,"3.0",1,1
"rDRcOADIKvymJ2TSyULLnxWo4D","6buOomZW04tVoIyk2wo6RJC08Q",15169663,230,FALSE,35,7,11847,"A3C5D4_5",19,"3.0",4,0
"rDRcOADIKvymJ2TSyULLnxWo4D","6buOomZW04tVoIyk2wo6RJC08Q",15188856,231,FALSE,36,3,19191,"A4C3E5_5",19,"3.0",3,1
"rDRcOADIKvymJ2TSyULLnxWo4D","6buOomZW04tVoIyk2wo6RJC08Q",15202527,232,FALSE,37,4,13670,"A4D5E3_5",19,"3.0",6,0
"rDRcOADIKvymJ2TSyULLnxWo4D","6buOomZW04tVoIyk2wo6RJC08Q",15223261,233,FALSE,38,4,20733,"B3C4D5_4",19,"3.0",1,0
"rDRcOADIKvymJ2TSyULLnxWo4D","6buOomZW04tVoIyk2wo6RJC08Q",15242603,234,FALSE,39,5,19341,"B3C5E4_4",19,"3.0",6,0
"rDRcOADIKvymJ2TSyULLnxWo4D","6buOomZW04tVoIyk2wo6RJC08Q",15257149,235,FALSE,40,6,14545,"B4D3E5_4",19,"3.0",6,1
"rDRcOADIKvymJ2TSyULLnxWo4D","6buOomZW04tVoIyk2wo6RJC08Q",15269577,236,FALSE,41,2,12427,"C4D5E3_4",19,"3.0",2,1
"q4nRVOcjo2BHXLaJItbKSgI6Cl","gkstQDYnOuTw7vuImoEZYZ5h09",1779149,1034,FALSE,0,3,8972,"A1_2",13,"3.0",3,1
"q4nRVOcjo2BHXLaJItbKSgI6Cl","gkstQDYnOuTw7vuImoEZYZ5h09",1781670,1035,FALSE,1,1,2519,"B2_3",13,"3.0",1,1
"q4nRVOcjo2BHXLaJItbKSgI6Cl","gkstQDYnOuTw7vuImoEZYZ5h09",1789759,1036,FALSE,2,7,8086,"C3_3",13,"3.0",7,1
"q4nRVOcjo2BHXLaJItbKSgI6Cl","gkstQDYnOuTw7vuImoEZYZ5h09",1797158,1037,FALSE,3,4,7398,"D4_3",13,"3.0",4,1
"q4nRVOcjo2BHXLaJItbKSgI6Cl","gkstQDYnOuTw7vuImoEZYZ5h09",1802433,1038,FALSE,4,1,5272,"E5_3",13,"3.0",1,1
"q4nRVOcjo2BHXLaJItbKSgI6Cl","gkstQDYnOuTw7vuImoEZYZ5h09",1806925,1039,FALSE,5,3,4490,"C1D2",13,"3.0",3,1
"q4nRVOcjo2BHXLaJItbKSgI6Cl","gkstQDYnOuTw7vuImoEZYZ5h09",1817059,1040,FALSE,6,4,10132,"C2E3",13,"3.0",4,1
"q4nRVOcjo2BHXLaJItbKSgI6Cl","gkstQDYnOuTw7vuImoEZYZ5h09",1834539,1041,FALSE,7,5,17478,"D3E4",13,"3.0",5,1
"q4nRVOcjo2BHXLaJItbKSgI6Cl","gkstQDYnOuTw7vuImoEZYZ5h09",1841364,1042,FALSE,8,7,6822,"A4B5",13,"3.0",7,1
"q4nRVOcjo2BHXLaJItbKSgI6Cl","gkstQDYnOuTw7vuImoEZYZ5h09",1846977,1043,FALSE,9,6,5610,"A1D2",13,"3.0",6,1
"q4nRVOcjo2BHXLaJItbKSgI6Cl","gkstQDYnOuTw7vuImoEZYZ5h09",1855024,1044,FALSE,10,8,8046,"A2E3",13,"3.0",8,1
"q4nRVOcjo2BHXLaJItbKSgI6Cl","gkstQDYnOuTw7vuImoEZYZ5h09",1862500,1045,FALSE,11,2,7473,"B3C4",13,"3.0",2,1
"q4nRVOcjo2BHXLaJItbKSgI6Cl","gkstQDYnOuTw7vuImoEZYZ5h09",1868317,1046,FALSE,12,3,5813,"B4D5",13,"3.0",3,1
"q4nRVOcjo2BHXLaJItbKSgI6Cl","gkstQDYnOuTw7vuImoEZYZ5h09",1874689,1047,FALSE,13,5,6370,"B5E1",13,"3.0",5,1
"q4nRVOcjo2BHXLaJItbKSgI6Cl","gkstQDYnOuTw7vuImoEZYZ5h09",1888201,1048,FALSE,14,7,13510,"X_13",13,"3.0",7,1
"q4nRVOcjo2BHXLaJItbKSgI6Cl","gkstQDYnOuTw7vuImoEZYZ5h09",1917731,1049,FALSE,15,8,29528,"Y_13",13,"3.0",8,1
"q4nRVOcjo2BHXLaJItbKSgI6Cl","gkstQDYnOuTw7vuImoEZYZ5h09",1935774,1050,FALSE,16,2,18042,"Z_13",13,"3.0",2,1
"q4nRVOcjo2BHXLaJItbKSgI6Cl","gkstQDYnOuTw7vuImoEZYZ5h09",1947299,1051,FALSE,17,4,11522,"A3C1E2_1",13,"3.0",4,1
"q4nRVOcjo2BHXLaJItbKSgI6Cl","gkstQDYnOuTw7vuImoEZYZ5h09",1957175,1052,FALSE,18,8,9874,"A1B4C2",13,"3.0",8,1
"q4nRVOcjo2BHXLaJItbKSgI6Cl","gkstQDYnOuTw7vuImoEZYZ5h09",1967287,1053,FALSE,19,2,10110,"A2C5E1",13,"3.0",2,1
"q4nRVOcjo2BHXLaJItbKSgI6Cl","gkstQDYnOuTw7vuImoEZYZ5h09",1975813,1054,FALSE,20,7,8524,"C1D3E2",13,"3.0",7,1
"q4nRVOcjo2BHXLaJItbKSgI6Cl","gkstQDYnOuTw7vuImoEZYZ5h09",1985015,1055,FALSE,21,5,9200,"A1C2E4",13,"3.0",5,1
"q4nRVOcjo2BHXLaJItbKSgI6Cl","gkstQDYnOuTw7vuImoEZYZ5h09",1992350,1056,FALSE,22,5,7334,"A3B4C2",13,"3.0",5,1
"q4nRVOcjo2BHXLaJItbKSgI6Cl","gkstQDYnOuTw7vuImoEZYZ5h09",2011311,1057,FALSE,23,2,18958,"A3B1C5",13,"3.0",6,0
"q4nRVOcjo2BHXLaJItbKSgI6Cl","gkstQDYnOuTw7vuImoEZYZ5h09",2017323,1058,FALSE,24,7,6010,"A4B2D3",13,"3.0",7,1
"q4nRVOcjo2BHXLaJItbKSgI6Cl","gkstQDYnOuTw7vuImoEZYZ5h09",2022816,1059,FALSE,25,3,5491,"A4B1E5",13,"3.0",3,1
"q4nRVOcjo2BHXLaJItbKSgI6Cl","gkstQDYnOuTw7vuImoEZYZ5h09",2034513,1060,FALSE,26,2,11694,"A2B5C3",13,"3.0",2,1
"q4nRVOcjo2BHXLaJItbKSgI6Cl","gkstQDYnOuTw7vuImoEZYZ5h09",2052363,1061,FALSE,27,8,17848,"B5D4E1",13,"3.0",8,1
"q4nRVOcjo2BHXLaJItbKSgI6Cl","gkstQDYnOuTw7vuImoEZYZ5h09",2067673,1062,FALSE,28,1,15308,"B3C2E4",13,"3.0",1,1
"q4nRVOcjo2BHXLaJItbKSgI6Cl","gkstQDYnOuTw7vuImoEZYZ5h09",2091287,1063,FALSE,29,4,23612,"A2C3D5",13,"3.0",4,1
"q4nRVOcjo2BHXLaJItbKSgI6Cl","gkstQDYnOuTw7vuImoEZYZ5h09",2098921,1064,FALSE,30,3,7632,"C4D1E3",13,"3.0",3,1
"q4nRVOcjo2BHXLaJItbKSgI6Cl","gkstQDYnOuTw7vuImoEZYZ5h09",2108287,1065,FALSE,31,6,9365,"B1D4E5",13,"3.0",6,1
"q4nRVOcjo2BHXLaJItbKSgI6Cl","gkstQDYnOuTw7vuImoEZYZ5h09",2127840,1066,FALSE,32,4,19552,"A3B4C5_4",13,"3.0",1,0
"q4nRVOcjo2BHXLaJItbKSgI6Cl","gkstQDYnOuTw7vuImoEZYZ5h09",2136460,1067,FALSE,33,6,8618,"A3B5D4_4",13,"3.0",6,1
"q4nRVOcjo2BHXLaJItbKSgI6Cl","gkstQDYnOuTw7vuImoEZYZ5h09",2146095,1068,FALSE,34,6,9632,"A4B3E5_4",13,"3.0",6,1
"q4nRVOcjo2BHXLaJItbKSgI6Cl","gkstQDYnOuTw7vuImoEZYZ5h09",2168369,1069,FALSE,35,4,22272,"A4C5D3_4",13,"3.0",2,0
"q4nRVOcjo2BHXLaJItbKSgI6Cl","gkstQDYnOuTw7vuImoEZYZ5h09",2177469,1070,FALSE,36,2,9097,"A3C4E5_4",13,"3.0",1,0
"q4nRVOcjo2BHXLaJItbKSgI6Cl","gkstQDYnOuTw7vuImoEZYZ5h09",2190650,1071,FALSE,37,6,13180,"A3D5E4_4",13,"3.0",6,1
"q4nRVOcjo2BHXLaJItbKSgI6Cl","gkstQDYnOuTw7vuImoEZYZ5h09",2201655,1072,FALSE,38,4,11002,"B3C4D5_3",13,"3.0",4,1
"q4nRVOcjo2BHXLaJItbKSgI6Cl","gkstQDYnOuTw7vuImoEZYZ5h09",2213411,1073,FALSE,39,5,11754,"B3C5E4_3",13,"3.0",7,0
"q4nRVOcjo2BHXLaJItbKSgI6Cl","gkstQDYnOuTw7vuImoEZYZ5h09",2221129,1074,FALSE,40,2,7715,"B4D3E5_3",13,"3.0",2,1
"q4nRVOcjo2BHXLaJItbKSgI6Cl","gkstQDYnOuTw7vuImoEZYZ5h09",2228777,1075,FALSE,41,3,7645,"C4D5E3_3",13,"3.0",3,1
"Mx8vIXApijMaRfRVx5CwheNj7R","sRPWARk8wXzRjwNYFCV7c96tAO",4119418,245,FALSE,0,3,17755,"B1_1",1,"2.0",3,1
"Mx8vIXApijMaRfRVx5CwheNj7R","sRPWARk8wXzRjwNYFCV7c96tAO",4128714,246,FALSE,1,5,9291,"C2_1",1,"2.0",5,1
"Mx8vIXApijMaRfRVx5CwheNj7R","sRPWARk8wXzRjwNYFCV7c96tAO",4145538,247,FALSE,2,7,16818,"D3_1",1,"2.0",7,1
"Mx8vIXApijMaRfRVx5CwheNj7R","sRPWARk8wXzRjwNYFCV7c96tAO",4164010,248,FALSE,3,8,18466,"E4_1",1,"2.0",8,1
"Mx8vIXApijMaRfRVx5CwheNj7R","sRPWARk8wXzRjwNYFCV7c96tAO",4174978,249,FALSE,4,5,10962,"A1B2",1,"2.0",5,1
"Mx8vIXApijMaRfRVx5CwheNj7R","sRPWARk8wXzRjwNYFCV7c96tAO",4196258,250,FALSE,5,7,21274,"A2C3",1,"2.0",7,1
"Mx8vIXApijMaRfRVx5CwheNj7R","sRPWARk8wXzRjwNYFCV7c96tAO",4220090,251,FALSE,6,2,23826,"A3D4",1,"2.0",2,1
"Mx8vIXApijMaRfRVx5CwheNj7R","sRPWARk8wXzRjwNYFCV7c96tAO",4251096,252,TRUE,7,NA,31000,"A4E5",1,"2.0",8,NA
"Mx8vIXApijMaRfRVx5CwheNj7R","sRPWARk8wXzRjwNYFCV7c96tAO",4265954,253,FALSE,8,5,14854,"B5C1",1,"2.0",5,1
"Mx8vIXApijMaRfRVx5CwheNj7R","sRPWARk8wXzRjwNYFCV7c96tAO",4273003,254,FALSE,9,4,7042,"B1D2",1,"2.0",4,1
"Mx8vIXApijMaRfRVx5CwheNj7R","sRPWARk8wXzRjwNYFCV7c96tAO",4283922,255,FALSE,10,8,10914,"B2E3",1,"2.0",8,1
"Mx8vIXApijMaRfRVx5CwheNj7R","sRPWARk8wXzRjwNYFCV7c96tAO",4314925,256,TRUE,11,NA,30997,"C3D4",1,"2.0",2,NA
"Mx8vIXApijMaRfRVx5CwheNj7R","sRPWARk8wXzRjwNYFCV7c96tAO",4319194,257,FALSE,12,2,4263,"C4E5",1,"2.0",7,0
"Mx8vIXApijMaRfRVx5CwheNj7R","sRPWARk8wXzRjwNYFCV7c96tAO",4332064,258,FALSE,13,5,12865,"D5E1",1,"2.0",5,1
"Mx8vIXApijMaRfRVx5CwheNj7R","sRPWARk8wXzRjwNYFCV7c96tAO",4348369,259,FALSE,14,5,16303,"X_1",1,"2.0",5,1
"Mx8vIXApijMaRfRVx5CwheNj7R","sRPWARk8wXzRjwNYFCV7c96tAO",4352594,260,FALSE,15,6,4222,"Y_1",1,"2.0",6,1
"Mx8vIXApijMaRfRVx5CwheNj7R","sRPWARk8wXzRjwNYFCV7c96tAO",4354747,261,FALSE,16,3,2147,"Z_1",1,"2.0",7,0
"Mx8vIXApijMaRfRVx5CwheNj7R","sRPWARk8wXzRjwNYFCV7c96tAO",4356514,262,FALSE,17,5,1761,"A3B1C2_1",1,"2.0",4,0
"Mx8vIXApijMaRfRVx5CwheNj7R","sRPWARk8wXzRjwNYFCV7c96tAO",4358114,263,FALSE,18,3,1594,"A2B4E1",1,"2.0",3,1
"Mx8vIXApijMaRfRVx5CwheNj7R","sRPWARk8wXzRjwNYFCV7c96tAO",4359882,264,FALSE,19,5,1762,"B1C5E2",1,"2.0",6,0
"Mx8vIXApijMaRfRVx5CwheNj7R","sRPWARk8wXzRjwNYFCV7c96tAO",4362105,265,FALSE,20,2,2217,"A1D3E2",1,"2.0",1,0
"Mx8vIXApijMaRfRVx5CwheNj7R","sRPWARk8wXzRjwNYFCV7c96tAO",4364162,266,FALSE,21,7,2053,"B2C1E4",1,"2.0",6,0
"Mx8vIXApijMaRfRVx5CwheNj7R","sRPWARk8wXzRjwNYFCV7c96tAO",4366506,267,FALSE,22,8,2339,"A3B4C1",1,"2.0",6,0
"Mx8vIXApijMaRfRVx5CwheNj7R","sRPWARk8wXzRjwNYFCV7c96tAO",4368608,268,FALSE,23,4,2096,"A3B2C5",1,"2.0",2,0
"Mx8vIXApijMaRfRVx5CwheNj7R","sRPWARk8wXzRjwNYFCV7c96tAO",4370690,269,FALSE,24,1,2079,"A4B1D3",1,"2.0",1,1
"Mx8vIXApijMaRfRVx5CwheNj7R","sRPWARk8wXzRjwNYFCV7c96tAO",4373265,270,FALSE,25,6,2570,"A4B2E5",1,"2.0",6,1
"Mx8vIXApijMaRfRVx5CwheNj7R","sRPWARk8wXzRjwNYFCV7c96tAO",4375328,271,FALSE,26,4,2057,"B5C3D1",1,"2.0",4,1
"Mx8vIXApijMaRfRVx5CwheNj7R","sRPWARk8wXzRjwNYFCV7c96tAO",4377098,272,FALSE,27,6,1767,"B5C2D4",1,"2.0",7,0
"Mx8vIXApijMaRfRVx5CwheNj7R","sRPWARk8wXzRjwNYFCV7c96tAO",4379185,273,FALSE,28,8,2081,"A2B3E4",1,"2.0",2,0
"Mx8vIXApijMaRfRVx5CwheNj7R","sRPWARk8wXzRjwNYFCV7c96tAO",4381178,274,FALSE,29,2,1987,"C3D5E1",1,"2.0",3,0
"Mx8vIXApijMaRfRVx5CwheNj7R","sRPWARk8wXzRjwNYFCV7c96tAO",4383402,275,FALSE,30,3,2218,"B2C4E3",1,"2.0",1,0
"Mx8vIXApijMaRfRVx5CwheNj7R","sRPWARk8wXzRjwNYFCV7c96tAO",4385930,276,FALSE,31,6,2521,"A2D4E5",1,"2.0",3,0
"Mx8vIXApijMaRfRVx5CwheNj7R","sRPWARk8wXzRjwNYFCV7c96tAO",4388250,277,FALSE,32,7,2314,"A3B4C5_1",1,"2.0",1,0
"Mx8vIXApijMaRfRVx5CwheNj7R","sRPWARk8wXzRjwNYFCV7c96tAO",4390664,278,FALSE,33,1,2410,"A3B5D4_1",1,"2.0",7,0
"Mx8vIXApijMaRfRVx5CwheNj7R","sRPWARk8wXzRjwNYFCV7c96tAO",4393714,279,FALSE,34,3,3048,"A4B3E5_1",1,"2.0",4,0
"Mx8vIXApijMaRfRVx5CwheNj7R","sRPWARk8wXzRjwNYFCV7c96tAO",4395698,280,FALSE,35,5,1978,"A4C5D3_1",1,"2.0",1,0
"Mx8vIXApijMaRfRVx5CwheNj7R","sRPWARk8wXzRjwNYFCV7c96tAO",4397482,281,FALSE,36,6,1778,"A3C4E5_1",1,"2.0",3,0
"Mx8vIXApijMaRfRVx5CwheNj7R","sRPWARk8wXzRjwNYFCV7c96tAO",4399498,282,FALSE,37,8,2009,"A3D5E4_1",1,"2.0",4,0
"Mx8vIXApijMaRfRVx5CwheNj7R","sRPWARk8wXzRjwNYFCV7c96tAO",4401762,283,FALSE,38,2,2257,"B3C4D5_1",1,"2.0",5,0
"Mx8vIXApijMaRfRVx5CwheNj7R","sRPWARk8wXzRjwNYFCV7c96tAO",4403890,284,FALSE,39,4,2122,"B3C5E4_1",1,"2.0",7,0
"Mx8vIXApijMaRfRVx5CwheNj7R","sRPWARk8wXzRjwNYFCV7c96tAO",4405642,285,FALSE,40,6,1748,"B4D3E5_1",1,"2.0",8,0
"Mx8vIXApijMaRfRVx5CwheNj7R","sRPWARk8wXzRjwNYFCV7c96tAO",4408018,286,FALSE,41,5,2370,"C4D5E3_1",1,"2.0",6,0
"Scbpoqeq5cPbK4S6JgkDakbaJk","Koo6td3nw4YcorjR8C72YXgklR",6473519,651,FALSE,0,2,6291,"A4_1",20,"2.0",2,1
"Scbpoqeq5cPbK4S6JgkDakbaJk","Koo6td3nw4YcorjR8C72YXgklR",6485499,652,FALSE,1,6,11975,"B5_4",20,"2.0",6,1
"Scbpoqeq5cPbK4S6JgkDakbaJk","Koo6td3nw4YcorjR8C72YXgklR",6490186,653,FALSE,2,4,4681,"C1_4",20,"2.0",4,1
"Scbpoqeq5cPbK4S6JgkDakbaJk","Koo6td3nw4YcorjR8C72YXgklR",6495027,654,FALSE,3,7,4836,"D2_4",20,"2.0",7,1
"Scbpoqeq5cPbK4S6JgkDakbaJk","Koo6td3nw4YcorjR8C72YXgklR",6501625,655,FALSE,4,2,6593,"E3_4",20,"2.0",2,1
"Scbpoqeq5cPbK4S6JgkDakbaJk","Koo6td3nw4YcorjR8C72YXgklR",6508165,656,FALSE,5,3,6535,"B1E5",20,"2.0",3,1
"Scbpoqeq5cPbK4S6JgkDakbaJk","Koo6td3nw4YcorjR8C72YXgklR",6514145,657,FALSE,6,1,5975,"C2D1",20,"2.0",1,1
"Scbpoqeq5cPbK4S6JgkDakbaJk","Koo6td3nw4YcorjR8C72YXgklR",6529068,658,FALSE,7,3,14919,"C3E2",20,"2.0",3,1
"Scbpoqeq5cPbK4S6JgkDakbaJk","Koo6td3nw4YcorjR8C72YXgklR",6541517,659,FALSE,8,1,12443,"D4E3",20,"2.0",1,1
"Scbpoqeq5cPbK4S6JgkDakbaJk","Koo6td3nw4YcorjR8C72YXgklR",6550278,660,FALSE,9,4,8756,"A1C5",20,"2.0",4,1
"Scbpoqeq5cPbK4S6JgkDakbaJk","Koo6td3nw4YcorjR8C72YXgklR",6554450,661,FALSE,10,1,4167,"A2D1",20,"2.0",1,1
"Scbpoqeq5cPbK4S6JgkDakbaJk","Koo6td3nw4YcorjR8C72YXgklR",6563638,662,FALSE,11,3,9183,"A3E2",20,"2.0",3,1
"Scbpoqeq5cPbK4S6JgkDakbaJk","Koo6td3nw4YcorjR8C72YXgklR",6575068,663,FALSE,12,4,11425,"B4C3",20,"2.0",4,1
"Scbpoqeq5cPbK4S6JgkDakbaJk","Koo6td3nw4YcorjR8C72YXgklR",6582659,664,FALSE,13,5,7584,"B5D4",20,"2.0",5,1
"Scbpoqeq5cPbK4S6JgkDakbaJk","Koo6td3nw4YcorjR8C72YXgklR",6597376,665,FALSE,14,1,14712,"X_20",20,"2.0",7,0
"Scbpoqeq5cPbK4S6JgkDakbaJk","Koo6td3nw4YcorjR8C72YXgklR",6611753,666,FALSE,15,7,14374,"Y_20",20,"2.0",8,0
"Scbpoqeq5cPbK4S6JgkDakbaJk","Koo6td3nw4YcorjR8C72YXgklR",6634859,667,FALSE,16,3,23101,"Z_20",20,"2.0",6,0
"Scbpoqeq5cPbK4S6JgkDakbaJk","Koo6td3nw4YcorjR8C72YXgklR",6645215,668,FALSE,17,7,10351,"A4B1C2",20,"2.0",7,1
"Scbpoqeq5cPbK4S6JgkDakbaJk","Koo6td3nw4YcorjR8C72YXgklR",6655609,669,FALSE,18,8,10389,"A2B5E1",20,"2.0",8,1
"Scbpoqeq5cPbK4S6JgkDakbaJk","Koo6td3nw4YcorjR8C72YXgklR",6670792,670,FALSE,19,2,15178,"C3D1E2",20,"2.0",2,1
"Scbpoqeq5cPbK4S6JgkDakbaJk","Koo6td3nw4YcorjR8C72YXgklR",6678951,671,FALSE,20,5,8153,"A1D4E2",20,"2.0",4,0
"Scbpoqeq5cPbK4S6JgkDakbaJk","Koo6td3nw4YcorjR8C72YXgklR",6688653,672,FALSE,21,5,9697,"B2C1E5",20,"2.0",5,1
"Scbpoqeq5cPbK4S6JgkDakbaJk","Koo6td3nw4YcorjR8C72YXgklR",6699729,673,FALSE,22,6,11071,"A3B5E1",20,"2.0",8,0
"Scbpoqeq5cPbK4S6JgkDakbaJk","Koo6td3nw4YcorjR8C72YXgklR",6711321,674,FALSE,23,5,11587,"A4C3D2",20,"2.0",5,1
"Scbpoqeq5cPbK4S6JgkDakbaJk","Koo6td3nw4YcorjR8C72YXgklR",6722423,675,FALSE,24,7,11097,"A4D5E1",20,"2.0",4,0
"Scbpoqeq5cPbK4S6JgkDakbaJk","Koo6td3nw4YcorjR8C72YXgklR",6732849,676,FALSE,25,8,10421,"A4D2E5",20,"2.0",8,1
"Scbpoqeq5cPbK4S6JgkDakbaJk","Koo6td3nw4YcorjR8C72YXgklR",6763852,677,TRUE,26,NA,30999,"B5C4D1",20,"2.0",2,NA
"Scbpoqeq5cPbK4S6JgkDakbaJk","Koo6td3nw4YcorjR8C72YXgklR",6775254,678,FALSE,27,8,11397,"B3C2D4",20,"2.0",7,0
"Scbpoqeq5cPbK4S6JgkDakbaJk","Koo6td3nw4YcorjR8C72YXgklR",6784110,679,FALSE,28,5,8851,"A2B3E5",20,"2.0",5,1
"Scbpoqeq5cPbK4S6JgkDakbaJk","Koo6td3nw4YcorjR8C72YXgklR",6792810,680,FALSE,29,1,8694,"C4D3E1",20,"2.0",5,0
"Scbpoqeq5cPbK4S6JgkDakbaJk","Koo6td3nw4YcorjR8C72YXgklR",6804324,681,FALSE,30,6,11509,"B2C4E5",20,"2.0",6,1
"Scbpoqeq5cPbK4S6JgkDakbaJk","Koo6td3nw4YcorjR8C72YXgklR",6815864,682,FALSE,31,5,11535,"A2D5E3",20,"2.0",7,0
"Scbpoqeq5cPbK4S6JgkDakbaJk","Koo6td3nw4YcorjR8C72YXgklR",6834952,683,FALSE,32,2,19083,"A4B5C3_5",20,"2.0",3,0
"Scbpoqeq5cPbK4S6JgkDakbaJk","Koo6td3nw4YcorjR8C72YXgklR",6856780,684,FALSE,33,3,21823,"A3B4D5_5",20,"2.0",2,0
"Scbpoqeq5cPbK4S6JgkDakbaJk","Koo6td3nw4YcorjR8C72YXgklR",6881428,685,FALSE,34,3,24643,"A3B5E4_5",20,"2.0",3,1
"Scbpoqeq5cPbK4S6JgkDakbaJk","Koo6td3nw4YcorjR8C72YXgklR",6897184,686,FALSE,35,1,15751,"A4C3D5_5",20,"2.0",1,1
"Scbpoqeq5cPbK4S6JgkDakbaJk","Koo6td3nw4YcorjR8C72YXgklR",6911438,687,FALSE,36,4,14249,"A4C5E3_5",20,"2.0",4,1
"Scbpoqeq5cPbK4S6JgkDakbaJk","Koo6td3nw4YcorjR8C72YXgklR",6921598,688,FALSE,37,3,10155,"A3D4E5_5",20,"2.0",3,1
"Scbpoqeq5cPbK4S6JgkDakbaJk","Koo6td3nw4YcorjR8C72YXgklR",6936993,689,FALSE,38,6,15389,"B3C5D4_4",20,"2.0",6,1
"Scbpoqeq5cPbK4S6JgkDakbaJk","Koo6td3nw4YcorjR8C72YXgklR",6950673,690,FALSE,39,1,13677,"B4C3E5_4",20,"2.0",1,1
"Scbpoqeq5cPbK4S6JgkDakbaJk","Koo6td3nw4YcorjR8C72YXgklR",6958659,691,FALSE,40,7,7981,"B4D5E3_4",20,"2.0",6,0
"Scbpoqeq5cPbK4S6JgkDakbaJk","Koo6td3nw4YcorjR8C72YXgklR",6971823,692,FALSE,41,3,13159,"C5D3E4_4",20,"2.0",6,0
"eFe95CeeQAgOoze8mvOzVQ4Hv6","VjYssdBmru7tOalICnyFgzyX5R",4149130,1161,FALSE,0,5,3848,"A2_1",6,"3.0",5,1
"eFe95CeeQAgOoze8mvOzVQ4Hv6","VjYssdBmru7tOalICnyFgzyX5R",4155366,1162,FALSE,1,7,6234,"B3_1",6,"3.0",7,1
"eFe95CeeQAgOoze8mvOzVQ4Hv6","VjYssdBmru7tOalICnyFgzyX5R",4184515,1163,FALSE,2,8,29146,"C4_1",6,"3.0",8,1
"eFe95CeeQAgOoze8mvOzVQ4Hv6","VjYssdBmru7tOalICnyFgzyX5R",4191415,1164,FALSE,3,6,6898,"D5_1",6,"3.0",6,1
"eFe95CeeQAgOoze8mvOzVQ4Hv6","VjYssdBmru7tOalICnyFgzyX5R",4196174,1165,FALSE,4,8,4756,"E1_1",6,"3.0",8,1
"eFe95CeeQAgOoze8mvOzVQ4Hv6","VjYssdBmru7tOalICnyFgzyX5R",4204456,1166,FALSE,5,2,8280,"D1E3",6,"3.0",2,1
"eFe95CeeQAgOoze8mvOzVQ4Hv6","VjYssdBmru7tOalICnyFgzyX5R",4213126,1167,FALSE,6,3,8668,"A2B4",6,"3.0",3,1
"eFe95CeeQAgOoze8mvOzVQ4Hv6","VjYssdBmru7tOalICnyFgzyX5R",4228050,1168,FALSE,7,5,14922,"A3C5",6,"3.0",5,1
"eFe95CeeQAgOoze8mvOzVQ4Hv6","VjYssdBmru7tOalICnyFgzyX5R",4237535,1169,FALSE,8,7,9482,"A4D1",6,"3.0",7,1
"eFe95CeeQAgOoze8mvOzVQ4Hv6","VjYssdBmru7tOalICnyFgzyX5R",4242451,1170,FALSE,9,2,4914,"B1C3",6,"3.0",2,1
"eFe95CeeQAgOoze8mvOzVQ4Hv6","VjYssdBmru7tOalICnyFgzyX5R",4250395,1171,FALSE,10,4,7942,"B2D4",6,"3.0",4,1
"eFe95CeeQAgOoze8mvOzVQ4Hv6","VjYssdBmru7tOalICnyFgzyX5R",4258429,1172,FALSE,11,5,8032,"B3E5",6,"3.0",5,1
"eFe95CeeQAgOoze8mvOzVQ4Hv6","VjYssdBmru7tOalICnyFgzyX5R",4272610,1173,FALSE,12,8,14178,"C4D1",6,"3.0",8,1
"eFe95CeeQAgOoze8mvOzVQ4Hv6","VjYssdBmru7tOalICnyFgzyX5R",4287933,1174,FALSE,13,4,15321,"C5E2",6,"3.0",5,0
"eFe95CeeQAgOoze8mvOzVQ4Hv6","VjYssdBmru7tOalICnyFgzyX5R",4315037,1175,FALSE,14,4,27102,"X_6",6,"3.0",4,1
"eFe95CeeQAgOoze8mvOzVQ4Hv6","VjYssdBmru7tOalICnyFgzyX5R",4331947,1176,FALSE,15,6,16908,"Y_6",6,"3.0",8,0
"eFe95CeeQAgOoze8mvOzVQ4Hv6","VjYssdBmru7tOalICnyFgzyX5R",4349447,1177,FALSE,16,3,17498,"Z_6",6,"3.0",2,0
"eFe95CeeQAgOoze8mvOzVQ4Hv6","VjYssdBmru7tOalICnyFgzyX5R",4361144,1178,FALSE,17,7,11695,"A3B2D1_2",6,"3.0",7,1
"eFe95CeeQAgOoze8mvOzVQ4Hv6","VjYssdBmru7tOalICnyFgzyX5R",4368637,1179,FALSE,18,3,7491,"A1B3E2",6,"3.0",3,1
"eFe95CeeQAgOoze8mvOzVQ4Hv6","VjYssdBmru7tOalICnyFgzyX5R",4380926,1180,FALSE,19,2,12287,"B1C4E2",6,"3.0",2,1
"eFe95CeeQAgOoze8mvOzVQ4Hv6","VjYssdBmru7tOalICnyFgzyX5R",4389338,1181,FALSE,20,8,8410,"A2B1D5",6,"3.0",8,1
"eFe95CeeQAgOoze8mvOzVQ4Hv6","VjYssdBmru7tOalICnyFgzyX5R",4401581,1182,FALSE,21,1,12241,"B1C2E3",6,"3.0",1,1
"eFe95CeeQAgOoze8mvOzVQ4Hv6","VjYssdBmru7tOalICnyFgzyX5R",4421600,1183,FALSE,22,1,20017,"A3B5D2",6,"3.0",4,0
"eFe95CeeQAgOoze8mvOzVQ4Hv6","VjYssdBmru7tOalICnyFgzyX5R",4431037,1184,FALSE,23,3,9434,"A3B1C4",6,"3.0",3,1
"eFe95CeeQAgOoze8mvOzVQ4Hv6","VjYssdBmru7tOalICnyFgzyX5R",4449075,1185,FALSE,24,2,18036,"A3B2D5",6,"3.0",6,0
"eFe95CeeQAgOoze8mvOzVQ4Hv6","VjYssdBmru7tOalICnyFgzyX5R",4456956,1186,FALSE,25,1,7879,"A4B1E3",6,"3.0",1,1
"eFe95CeeQAgOoze8mvOzVQ4Hv6","VjYssdBmru7tOalICnyFgzyX5R",4467825,1187,FALSE,26,6,10867,"B4C5D2",6,"3.0",6,1
"eFe95CeeQAgOoze8mvOzVQ4Hv6","VjYssdBmru7tOalICnyFgzyX5R",4498816,1188,FALSE,27,6,30988,"B5C1D3",6,"3.0",6,1
"eFe95CeeQAgOoze8mvOzVQ4Hv6","VjYssdBmru7tOalICnyFgzyX5R",4508370,1189,FALSE,28,6,9552,"A1B5E4",6,"3.0",2,0
"eFe95CeeQAgOoze8mvOzVQ4Hv6","VjYssdBmru7tOalICnyFgzyX5R",4525709,1190,FALSE,29,1,17337,"C3D4E2",6,"3.0",1,1
"eFe95CeeQAgOoze8mvOzVQ4Hv6","VjYssdBmru7tOalICnyFgzyX5R",4546107,1191,FALSE,30,6,20396,"B2C3E5",6,"3.0",6,1
"eFe95CeeQAgOoze8mvOzVQ4Hv6","VjYssdBmru7tOalICnyFgzyX5R",4560486,1192,FALSE,31,4,14377,"A1D4E3",6,"3.0",4,1
"eFe95CeeQAgOoze8mvOzVQ4Hv6","VjYssdBmru7tOalICnyFgzyX5R",4574697,1193,FALSE,32,7,14209,"A3B5C4_2",6,"3.0",7,1
"eFe95CeeQAgOoze8mvOzVQ4Hv6","VjYssdBmru7tOalICnyFgzyX5R",4587731,1194,FALSE,33,8,13031,"A4B3D5_2",6,"3.0",2,0
"eFe95CeeQAgOoze8mvOzVQ4Hv6","VjYssdBmru7tOalICnyFgzyX5R",4598952,1195,FALSE,34,3,11220,"A4B5E3_2",6,"3.0",3,1
"eFe95CeeQAgOoze8mvOzVQ4Hv6","VjYssdBmru7tOalICnyFgzyX5R",4608310,1196,FALSE,35,3,9356,"A3C4D5_2",6,"3.0",1,0
"eFe95CeeQAgOoze8mvOzVQ4Hv6","VjYssdBmru7tOalICnyFgzyX5R",4618339,1197,FALSE,36,3,10026,"A3C5E4_2",6,"3.0",3,1
"eFe95CeeQAgOoze8mvOzVQ4Hv6","VjYssdBmru7tOalICnyFgzyX5R",4627444,1198,FALSE,37,1,9103,"A4D3E5_2",6,"3.0",1,1
"eFe95CeeQAgOoze8mvOzVQ4Hv6","VjYssdBmru7tOalICnyFgzyX5R",4642809,1199,FALSE,38,6,15362,"B5C4D3_1",6,"3.0",7,0
"eFe95CeeQAgOoze8mvOzVQ4Hv6","VjYssdBmru7tOalICnyFgzyX5R",4650443,1200,FALSE,39,4,7633,"B3C4E5_1",6,"3.0",4,1
"eFe95CeeQAgOoze8mvOzVQ4Hv6","VjYssdBmru7tOalICnyFgzyX5R",4660023,1201,FALSE,40,2,9577,"B3D5E4_1",6,"3.0",1,0
"eFe95CeeQAgOoze8mvOzVQ4Hv6","VjYssdBmru7tOalICnyFgzyX5R",4670424,1202,FALSE,41,3,10399,"C4D3E5_1",6,"3.0",3,1
"bArB5qhI33ayqzPdBGfvyVkjoA","XtClsJspMTdNEi1tNhwFIm9Eme",2922228,1117,FALSE,0,7,10413,"A2_4",18,"3.0",4,0
"bArB5qhI33ayqzPdBGfvyVkjoA","XtClsJspMTdNEi1tNhwFIm9Eme",2930962,1118,FALSE,1,7,8719,"B3_4",18,"3.0",7,1
"bArB5qhI33ayqzPdBGfvyVkjoA","XtClsJspMTdNEi1tNhwFIm9Eme",2952505,1119,FALSE,2,2,21528,"C4_4",18,"3.0",2,1
"bArB5qhI33ayqzPdBGfvyVkjoA","XtClsJspMTdNEi1tNhwFIm9Eme",2961380,1120,FALSE,3,3,8860,"D5_4",18,"3.0",3,1
"bArB5qhI33ayqzPdBGfvyVkjoA","XtClsJspMTdNEi1tNhwFIm9Eme",2967072,1121,FALSE,4,1,5677,"E1_4",18,"3.0",1,1
"bArB5qhI33ayqzPdBGfvyVkjoA","XtClsJspMTdNEi1tNhwFIm9Eme",2973517,1122,FALSE,5,3,6431,"B1E3",18,"3.0",3,1
"bArB5qhI33ayqzPdBGfvyVkjoA","XtClsJspMTdNEi1tNhwFIm9Eme",2984464,1123,FALSE,6,1,10932,"C2D4",18,"3.0",1,1
"bArB5qhI33ayqzPdBGfvyVkjoA","XtClsJspMTdNEi1tNhwFIm9Eme",3009989,1124,FALSE,7,7,25512,"C3E5",18,"3.0",7,1
"bArB5qhI33ayqzPdBGfvyVkjoA","XtClsJspMTdNEi1tNhwFIm9Eme",3022176,1125,FALSE,8,4,12173,"D4E1",18,"3.0",4,1
"bArB5qhI33ayqzPdBGfvyVkjoA","XtClsJspMTdNEi1tNhwFIm9Eme",3032796,1126,FALSE,9,3,10604,"A1C3",18,"3.0",3,1
"bArB5qhI33ayqzPdBGfvyVkjoA","XtClsJspMTdNEi1tNhwFIm9Eme",3050540,1127,FALSE,10,2,17731,"A2D4",18,"3.0",4,0
"bArB5qhI33ayqzPdBGfvyVkjoA","XtClsJspMTdNEi1tNhwFIm9Eme",3062904,1128,FALSE,11,5,12343,"A3E5",18,"3.0",5,1
"bArB5qhI33ayqzPdBGfvyVkjoA","XtClsJspMTdNEi1tNhwFIm9Eme",3069690,1129,FALSE,12,7,6767,"B4C1",18,"3.0",7,1
"bArB5qhI33ayqzPdBGfvyVkjoA","XtClsJspMTdNEi1tNhwFIm9Eme",3079385,1130,FALSE,13,8,9679,"B5D2",18,"3.0",8,1
"bArB5qhI33ayqzPdBGfvyVkjoA","XtClsJspMTdNEi1tNhwFIm9Eme",3110398,1131,TRUE,14,NA,30999,"X_18",18,"3.0",6,NA
"bArB5qhI33ayqzPdBGfvyVkjoA","XtClsJspMTdNEi1tNhwFIm9Eme",3123068,1132,FALSE,15,6,12656,"Y_18",18,"3.0",8,0
"bArB5qhI33ayqzPdBGfvyVkjoA","XtClsJspMTdNEi1tNhwFIm9Eme",3144714,1133,FALSE,16,4,21629,"Z_18",18,"3.0",2,0
"bArB5qhI33ayqzPdBGfvyVkjoA","XtClsJspMTdNEi1tNhwFIm9Eme",3151527,1134,FALSE,17,2,6798,"A4D1E2_2",18,"3.0",2,1
"bArB5qhI33ayqzPdBGfvyVkjoA","XtClsJspMTdNEi1tNhwFIm9Eme",3163536,1135,FALSE,18,1,11995,"A2B3C1",18,"3.0",4,0
"bArB5qhI33ayqzPdBGfvyVkjoA","XtClsJspMTdNEi1tNhwFIm9Eme",3176005,1136,FALSE,19,3,12455,"A1C4E2",18,"3.0",5,0
"bArB5qhI33ayqzPdBGfvyVkjoA","XtClsJspMTdNEi1tNhwFIm9Eme",3185487,1137,FALSE,20,5,9465,"B2D5E1",18,"3.0",8,0
"bArB5qhI33ayqzPdBGfvyVkjoA","XtClsJspMTdNEi1tNhwFIm9Eme",3203320,1138,FALSE,21,5,17819,"A2C1E3",18,"3.0",5,1
"bArB5qhI33ayqzPdBGfvyVkjoA","XtClsJspMTdNEi1tNhwFIm9Eme",3222887,1139,FALSE,22,4,19550,"A3B5D1",18,"3.0",4,1
"bArB5qhI33ayqzPdBGfvyVkjoA","XtClsJspMTdNEi1tNhwFIm9Eme",3242253,1140,FALSE,23,8,19352,"A3B2C4",18,"3.0",8,1
"bArB5qhI33ayqzPdBGfvyVkjoA","XtClsJspMTdNEi1tNhwFIm9Eme",3263220,1141,FALSE,24,2,20950,"A3B1D5",18,"3.0",2,1
"bArB5qhI33ayqzPdBGfvyVkjoA","XtClsJspMTdNEi1tNhwFIm9Eme",3278037,1142,FALSE,25,7,14808,"A4B2E3",18,"3.0",7,1
"bArB5qhI33ayqzPdBGfvyVkjoA","XtClsJspMTdNEi1tNhwFIm9Eme",3287994,1143,FALSE,26,5,9941,"A1B4C5",18,"3.0",5,1
"bArB5qhI33ayqzPdBGfvyVkjoA","XtClsJspMTdNEi1tNhwFIm9Eme",3311079,1144,FALSE,27,1,23069,"B5D3E2",18,"3.0",5,0
"bArB5qhI33ayqzPdBGfvyVkjoA","XtClsJspMTdNEi1tNhwFIm9Eme",3325153,1145,FALSE,28,5,14060,"B5C1E4",18,"3.0",6,0
"bArB5qhI33ayqzPdBGfvyVkjoA","XtClsJspMTdNEi1tNhwFIm9Eme",3340899,1146,FALSE,29,7,15729,"A1C3D4",18,"3.0",7,1
"bArB5qhI33ayqzPdBGfvyVkjoA","XtClsJspMTdNEi1tNhwFIm9Eme",3351268,1147,FALSE,30,3,10355,"C3D2E5",18,"3.0",3,1
"bArB5qhI33ayqzPdBGfvyVkjoA","XtClsJspMTdNEi1tNhwFIm9Eme",3360249,1148,FALSE,31,6,8965,"B1D4E3",18,"3.0",2,0
"bArB5qhI33ayqzPdBGfvyVkjoA","XtClsJspMTdNEi1tNhwFIm9Eme",3371229,1149,FALSE,32,8,10965,"A3B5C4_5",18,"3.0",8,1
"bArB5qhI33ayqzPdBGfvyVkjoA","XtClsJspMTdNEi1tNhwFIm9Eme",3386745,1150,FALSE,33,1,15500,"A4B3D5_5",18,"3.0",1,1
"bArB5qhI33ayqzPdBGfvyVkjoA","XtClsJspMTdNEi1tNhwFIm9Eme",3401719,1151,FALSE,34,4,14959,"A4B5E3_5",18,"3.0",4,1
"bArB5qhI33ayqzPdBGfvyVkjoA","XtClsJspMTdNEi1tNhwFIm9Eme",3410082,1152,FALSE,35,1,8345,"A3C4D5_5",18,"3.0",3,0
"bArB5qhI33ayqzPdBGfvyVkjoA","XtClsJspMTdNEi1tNhwFIm9Eme",3426187,1153,FALSE,36,3,16091,"A3C5E4_5",18,"3.0",6,0
"bArB5qhI33ayqzPdBGfvyVkjoA","XtClsJspMTdNEi1tNhwFIm9Eme",3439870,1154,FALSE,37,1,13669,"A4D3E5_5",18,"3.0",1,1
"bArB5qhI33ayqzPdBGfvyVkjoA","XtClsJspMTdNEi1tNhwFIm9Eme",3467026,1155,FALSE,38,5,27139,"B5C4D3_3",18,"3.0",6,0
"bArB5qhI33ayqzPdBGfvyVkjoA","XtClsJspMTdNEi1tNhwFIm9Eme",3478812,1156,FALSE,39,6,11770,"B3C4E5_3",18,"3.0",6,1
"bArB5qhI33ayqzPdBGfvyVkjoA","XtClsJspMTdNEi1tNhwFIm9Eme",3489871,1157,FALSE,40,1,11043,"B3D5E4_3",18,"3.0",2,0
"bArB5qhI33ayqzPdBGfvyVkjoA","XtClsJspMTdNEi1tNhwFIm9Eme",3505999,1158,FALSE,41,8,16112,"C4D3E5_3",18,"3.0",1,0
"MEb7oXeDnmtQ0bC3VQKEpwBH12","9NAozSzIlnTayeZyZgRhswlCbv",2841793,877,FALSE,0,2,9496,"A4_1",20,"2.0",2,1
"MEb7oXeDnmtQ0bC3VQKEpwBH12","9NAozSzIlnTayeZyZgRhswlCbv",2863763,878,FALSE,1,7,21966,"B5_4",20,"2.0",6,0
"MEb7oXeDnmtQ0bC3VQKEpwBH12","9NAozSzIlnTayeZyZgRhswlCbv",2875581,879,FALSE,2,4,11813,"C1_4",20,"2.0",4,1
"MEb7oXeDnmtQ0bC3VQKEpwBH12","9NAozSzIlnTayeZyZgRhswlCbv",2882001,880,FALSE,3,7,6414,"D2_4",20,"2.0",7,1
"MEb7oXeDnmtQ0bC3VQKEpwBH12","9NAozSzIlnTayeZyZgRhswlCbv",2890890,881,FALSE,4,2,8883,"E3_4",20,"2.0",2,1
"MEb7oXeDnmtQ0bC3VQKEpwBH12","9NAozSzIlnTayeZyZgRhswlCbv",2900863,882,FALSE,5,3,9968,"B1E5",20,"2.0",3,1
"MEb7oXeDnmtQ0bC3VQKEpwBH12","9NAozSzIlnTayeZyZgRhswlCbv",2908158,883,FALSE,6,1,7290,"C2D1",20,"2.0",1,1
"MEb7oXeDnmtQ0bC3VQKEpwBH12","9NAozSzIlnTayeZyZgRhswlCbv",2929880,884,FALSE,7,2,21717,"C3E2",20,"2.0",3,0
"MEb7oXeDnmtQ0bC3VQKEpwBH12","9NAozSzIlnTayeZyZgRhswlCbv",2938726,885,FALSE,8,1,8841,"D4E3",20,"2.0",1,1
"MEb7oXeDnmtQ0bC3VQKEpwBH12","9NAozSzIlnTayeZyZgRhswlCbv",2954872,886,FALSE,9,4,16143,"A1C5",20,"2.0",4,1
"MEb7oXeDnmtQ0bC3VQKEpwBH12","9NAozSzIlnTayeZyZgRhswlCbv",2960609,887,FALSE,10,1,5732,"A2D1",20,"2.0",1,1
"MEb7oXeDnmtQ0bC3VQKEpwBH12","9NAozSzIlnTayeZyZgRhswlCbv",2971177,888,FALSE,11,3,10562,"A3E2",20,"2.0",3,1
"MEb7oXeDnmtQ0bC3VQKEpwBH12","9NAozSzIlnTayeZyZgRhswlCbv",2985099,889,FALSE,12,4,13917,"B4C3",20,"2.0",4,1
"MEb7oXeDnmtQ0bC3VQKEpwBH12","9NAozSzIlnTayeZyZgRhswlCbv",3003242,890,FALSE,13,2,18136,"B5D4",20,"2.0",5,0
"MEb7oXeDnmtQ0bC3VQKEpwBH12","9NAozSzIlnTayeZyZgRhswlCbv",3017480,891,FALSE,14,1,14232,"X_20",20,"2.0",7,0
"MEb7oXeDnmtQ0bC3VQKEpwBH12","9NAozSzIlnTayeZyZgRhswlCbv",3048487,892,TRUE,15,NA,31002,"Y_20",20,"2.0",8,NA
"MEb7oXeDnmtQ0bC3VQKEpwBH12","9NAozSzIlnTayeZyZgRhswlCbv",3061945,893,FALSE,16,3,13452,"Z_20",20,"2.0",6,0
"MEb7oXeDnmtQ0bC3VQKEpwBH12","9NAozSzIlnTayeZyZgRhswlCbv",3076652,894,FALSE,17,7,14698,"A4B1C2",20,"2.0",7,1
"MEb7oXeDnmtQ0bC3VQKEpwBH12","9NAozSzIlnTayeZyZgRhswlCbv",3085584,895,FALSE,18,5,8925,"A2B5E1",20,"2.0",8,0
"MEb7oXeDnmtQ0bC3VQKEpwBH12","9NAozSzIlnTayeZyZgRhswlCbv",3102068,896,FALSE,19,2,16479,"C3D1E2",20,"2.0",2,1
"MEb7oXeDnmtQ0bC3VQKEpwBH12","9NAozSzIlnTayeZyZgRhswlCbv",3112020,897,FALSE,20,4,9948,"A1D4E2",20,"2.0",4,1
"MEb7oXeDnmtQ0bC3VQKEpwBH12","9NAozSzIlnTayeZyZgRhswlCbv",3126941,898,FALSE,21,5,14923,"B2C1E5",20,"2.0",5,1
"MEb7oXeDnmtQ0bC3VQKEpwBH12","9NAozSzIlnTayeZyZgRhswlCbv",3136985,899,FALSE,22,4,10038,"A3B5E1",20,"2.0",8,0
"MEb7oXeDnmtQ0bC3VQKEpwBH12","9NAozSzIlnTayeZyZgRhswlCbv",3153212,900,FALSE,23,5,16221,"A4C3D2",20,"2.0",5,1
"MEb7oXeDnmtQ0bC3VQKEpwBH12","9NAozSzIlnTayeZyZgRhswlCbv",3163386,901,FALSE,24,7,10169,"A4D5E1",20,"2.0",4,0
"MEb7oXeDnmtQ0bC3VQKEpwBH12","9NAozSzIlnTayeZyZgRhswlCbv",3175067,902,FALSE,25,8,11675,"A4D2E5",20,"2.0",8,1
"MEb7oXeDnmtQ0bC3VQKEpwBH12","9NAozSzIlnTayeZyZgRhswlCbv",3188994,903,FALSE,26,2,13917,"B5C4D1",20,"2.0",2,1
"MEb7oXeDnmtQ0bC3VQKEpwBH12","9NAozSzIlnTayeZyZgRhswlCbv",3207209,904,FALSE,27,7,18209,"B3C2D4",20,"2.0",7,1
"MEb7oXeDnmtQ0bC3VQKEpwBH12","9NAozSzIlnTayeZyZgRhswlCbv",3217992,905,FALSE,28,5,10778,"A2B3E5",20,"2.0",5,1
"MEb7oXeDnmtQ0bC3VQKEpwBH12","9NAozSzIlnTayeZyZgRhswlCbv",3228469,906,FALSE,29,5,10472,"C4D3E1",20,"2.0",5,1
"MEb7oXeDnmtQ0bC3VQKEpwBH12","9NAozSzIlnTayeZyZgRhswlCbv",3240946,907,FALSE,30,6,12473,"B2C4E5",20,"2.0",6,1
"MEb7oXeDnmtQ0bC3VQKEpwBH12","9NAozSzIlnTayeZyZgRhswlCbv",3255540,908,FALSE,31,6,14590,"A2D5E3",20,"2.0",7,0
"MEb7oXeDnmtQ0bC3VQKEpwBH12","9NAozSzIlnTayeZyZgRhswlCbv",3273185,909,FALSE,32,1,17640,"A4B5C3_5",20,"2.0",3,0
"MEb7oXeDnmtQ0bC3VQKEpwBH12","9NAozSzIlnTayeZyZgRhswlCbv",3289797,910,FALSE,33,4,16602,"A3B4D5_5",20,"2.0",2,0
"MEb7oXeDnmtQ0bC3VQKEpwBH12","9NAozSzIlnTayeZyZgRhswlCbv",3307863,911,FALSE,34,3,18060,"A3B5E4_5",20,"2.0",3,1
"MEb7oXeDnmtQ0bC3VQKEpwBH12","9NAozSzIlnTayeZyZgRhswlCbv",3319713,912,FALSE,35,6,11845,"A4C3D5_5",20,"2.0",1,0
"MEb7oXeDnmtQ0bC3VQKEpwBH12","9NAozSzIlnTayeZyZgRhswlCbv",3330788,913,FALSE,36,4,11070,"A4C5E3_5",20,"2.0",4,1
"MEb7oXeDnmtQ0bC3VQKEpwBH12","9NAozSzIlnTayeZyZgRhswlCbv",3355614,914,FALSE,37,3,24821,"A3D4E5_5",20,"2.0",3,1
"MEb7oXeDnmtQ0bC3VQKEpwBH12","9NAozSzIlnTayeZyZgRhswlCbv",3362948,915,FALSE,38,6,7329,"B3C5D4_4",20,"2.0",6,1
"MEb7oXeDnmtQ0bC3VQKEpwBH12","9NAozSzIlnTayeZyZgRhswlCbv",3377611,916,FALSE,39,1,14661,"B4C3E5_4",20,"2.0",1,1
"MEb7oXeDnmtQ0bC3VQKEpwBH12","9NAozSzIlnTayeZyZgRhswlCbv",3392841,917,FALSE,40,5,15225,"B4D5E3_4",20,"2.0",6,0
"MEb7oXeDnmtQ0bC3VQKEpwBH12","9NAozSzIlnTayeZyZgRhswlCbv",3404265,918,FALSE,41,1,11419,"C5D3E4_4",20,"2.0",6,0
"e93AKbQfQkjIawUmpnrHDyMCEn","r0TGG1ZeRumnSXFJlaV9vR7MW6",5359127,1304,FALSE,0,3,5041,"A1_1",5,"2.0",6,0
"e93AKbQfQkjIawUmpnrHDyMCEn","r0TGG1ZeRumnSXFJlaV9vR7MW6",5362668,1305,FALSE,1,4,3534,"B2_1",5,"2.0",8,0
"e93AKbQfQkjIawUmpnrHDyMCEn","r0TGG1ZeRumnSXFJlaV9vR7MW6",5366100,1306,FALSE,2,5,3424,"C3_1",5,"2.0",7,0
"e93AKbQfQkjIawUmpnrHDyMCEn","r0TGG1ZeRumnSXFJlaV9vR7MW6",5368790,1307,FALSE,3,6,2684,"D4_1",5,"2.0",8,0
"e93AKbQfQkjIawUmpnrHDyMCEn","r0TGG1ZeRumnSXFJlaV9vR7MW6",5371775,1308,FALSE,4,2,2977,"E5_1",5,"2.0",2,1
"e93AKbQfQkjIawUmpnrHDyMCEn","r0TGG1ZeRumnSXFJlaV9vR7MW6",5374052,1309,FALSE,5,5,2268,"D1E2",5,"2.0",3,0
"e93AKbQfQkjIawUmpnrHDyMCEn","r0TGG1ZeRumnSXFJlaV9vR7MW6",5376457,1310,FALSE,6,4,2398,"A2B3",5,"2.0",5,0
"e93AKbQfQkjIawUmpnrHDyMCEn","r0TGG1ZeRumnSXFJlaV9vR7MW6",5378616,1311,FALSE,7,5,2152,"A3C4",5,"2.0",7,0
"e93AKbQfQkjIawUmpnrHDyMCEn","r0TGG1ZeRumnSXFJlaV9vR7MW6",5381763,1312,FALSE,8,1,3140,"A4D5",5,"2.0",5,0
"e93AKbQfQkjIawUmpnrHDyMCEn","r0TGG1ZeRumnSXFJlaV9vR7MW6",5384693,1313,FALSE,9,8,2923,"B1C2",5,"2.0",4,0
"e93AKbQfQkjIawUmpnrHDyMCEn","r0TGG1ZeRumnSXFJlaV9vR7MW6",5387100,1314,FALSE,10,4,2399,"B2D3",5,"2.0",5,0
"e93AKbQfQkjIawUmpnrHDyMCEn","r0TGG1ZeRumnSXFJlaV9vR7MW6",5389189,1315,FALSE,11,5,2082,"B3E4",5,"2.0",8,0
"e93AKbQfQkjIawUmpnrHDyMCEn","r0TGG1ZeRumnSXFJlaV9vR7MW6",5391403,1316,FALSE,12,3,2206,"C4D5",5,"2.0",5,0
"e93AKbQfQkjIawUmpnrHDyMCEn","r0TGG1ZeRumnSXFJlaV9vR7MW6",5394264,1317,FALSE,13,6,2852,"C5E1",5,"2.0",4,0
"e93AKbQfQkjIawUmpnrHDyMCEn","r0TGG1ZeRumnSXFJlaV9vR7MW6",5396170,1318,FALSE,14,4,1898,"X_5",5,"2.0",8,0
"e93AKbQfQkjIawUmpnrHDyMCEn","r0TGG1ZeRumnSXFJlaV9vR7MW6",5400264,1319,FALSE,15,1,4088,"Y_5",5,"2.0",2,0
"e93AKbQfQkjIawUmpnrHDyMCEn","r0TGG1ZeRumnSXFJlaV9vR7MW6",5404398,1320,FALSE,16,3,4126,"Z_5",5,"2.0",7,0
"e93AKbQfQkjIawUmpnrHDyMCEn","r0TGG1ZeRumnSXFJlaV9vR7MW6",5407916,1321,FALSE,17,7,3511,"A4B1D2",5,"2.0",3,0
"e93AKbQfQkjIawUmpnrHDyMCEn","r0TGG1ZeRumnSXFJlaV9vR7MW6",5412357,1322,FALSE,18,5,4435,"B5C2D1",5,"2.0",2,0
"e93AKbQfQkjIawUmpnrHDyMCEn","r0TGG1ZeRumnSXFJlaV9vR7MW6",5419476,1323,FALSE,19,7,7111,"B1C3E2",5,"2.0",8,0
"e93AKbQfQkjIawUmpnrHDyMCEn","r0TGG1ZeRumnSXFJlaV9vR7MW6",5423300,1324,FALSE,20,5,3814,"A1B2D4",5,"2.0",1,0
"e93AKbQfQkjIawUmpnrHDyMCEn","r0TGG1ZeRumnSXFJlaV9vR7MW6",5430272,1325,FALSE,21,1,6965,"A2D1E5",5,"2.0",4,0
"e93AKbQfQkjIawUmpnrHDyMCEn","r0TGG1ZeRumnSXFJlaV9vR7MW6",5434437,1326,FALSE,22,1,4158,"A3B4D1",5,"2.0",3,0
"e93AKbQfQkjIawUmpnrHDyMCEn","r0TGG1ZeRumnSXFJlaV9vR7MW6",5437491,1327,FALSE,23,4,3046,"A3C5D2",5,"2.0",6,0
"e93AKbQfQkjIawUmpnrHDyMCEn","r0TGG1ZeRumnSXFJlaV9vR7MW6",5442804,1328,FALSE,24,7,5306,"A3B1D4",5,"2.0",1,0
"e93AKbQfQkjIawUmpnrHDyMCEn","r0TGG1ZeRumnSXFJlaV9vR7MW6",5445918,1329,FALSE,25,7,3108,"A3B2E5",5,"2.0",6,0
"e93AKbQfQkjIawUmpnrHDyMCEn","r0TGG1ZeRumnSXFJlaV9vR7MW6",5448726,1330,FALSE,26,3,2801,"B4C3D1",5,"2.0",6,0
"e93AKbQfQkjIawUmpnrHDyMCEn","r0TGG1ZeRumnSXFJlaV9vR7MW6",5451001,1331,FALSE,27,5,2268,"B4C2D5",5,"2.0",2,0
"e93AKbQfQkjIawUmpnrHDyMCEn","r0TGG1ZeRumnSXFJlaV9vR7MW6",5453214,1332,FALSE,28,3,2207,"A2B5E3",5,"2.0",1,0
"e93AKbQfQkjIawUmpnrHDyMCEn","r0TGG1ZeRumnSXFJlaV9vR7MW6",5456252,1333,FALSE,29,7,3031,"C5D4E1",5,"2.0",6,0
"e93AKbQfQkjIawUmpnrHDyMCEn","r0TGG1ZeRumnSXFJlaV9vR7MW6",5458750,1334,FALSE,30,2,2491,"B2C3E4",5,"2.0",4,0
"e93AKbQfQkjIawUmpnrHDyMCEn","r0TGG1ZeRumnSXFJlaV9vR7MW6",5460879,1335,FALSE,31,5,2121,"A2D3E5",5,"2.0",7,0
"e93AKbQfQkjIawUmpnrHDyMCEn","r0TGG1ZeRumnSXFJlaV9vR7MW6",5462691,1336,FALSE,32,3,1803,"A3B4C5_2",5,"2.0",2,0
"e93AKbQfQkjIawUmpnrHDyMCEn","r0TGG1ZeRumnSXFJlaV9vR7MW6",5464487,1337,FALSE,33,5,1790,"A3B5D4_2",5,"2.0",3,0
"e93AKbQfQkjIawUmpnrHDyMCEn","r0TGG1ZeRumnSXFJlaV9vR7MW6",5466832,1338,FALSE,34,2,2338,"A4B3E5_2",5,"2.0",1,0
"e93AKbQfQkjIawUmpnrHDyMCEn","r0TGG1ZeRumnSXFJlaV9vR7MW6",5468959,1339,FALSE,35,8,2121,"A4C5D3_2",5,"2.0",3,0
"e93AKbQfQkjIawUmpnrHDyMCEn","r0TGG1ZeRumnSXFJlaV9vR7MW6",5470973,1340,FALSE,36,4,2007,"A3C4E5_2",5,"2.0",1,0
"e93AKbQfQkjIawUmpnrHDyMCEn","r0TGG1ZeRumnSXFJlaV9vR7MW6",5472908,1341,FALSE,37,5,1928,"A3D5E4_2",5,"2.0",7,0
"e93AKbQfQkjIawUmpnrHDyMCEn","r0TGG1ZeRumnSXFJlaV9vR7MW6",5474598,1342,FALSE,38,4,1681,"B5C3D4_1",5,"2.0",4,1
"e93AKbQfQkjIawUmpnrHDyMCEn","r0TGG1ZeRumnSXFJlaV9vR7MW6",5476478,1343,FALSE,39,5,1872,"B5C4E3_1",5,"2.0",1,0
"e93AKbQfQkjIawUmpnrHDyMCEn","r0TGG1ZeRumnSXFJlaV9vR7MW6",5478352,1344,FALSE,40,6,1866,"B3D4E5_1",5,"2.0",3,0
"e93AKbQfQkjIawUmpnrHDyMCEn","r0TGG1ZeRumnSXFJlaV9vR7MW6",5480541,1345,FALSE,41,6,2182,"C3D5E4_1",5,"2.0",4,0
"jD9DLaZo1jwq1HQt3MjwiFBWPC","f1zw8EDQKr0B2RlgBrCHUD06aA",3514580,1256,FALSE,0,7,3865,"A2_1",6,"2.0",5,0
"jD9DLaZo1jwq1HQt3MjwiFBWPC","f1zw8EDQKr0B2RlgBrCHUD06aA",3520548,1257,FALSE,1,7,5965,"B3_1",6,"2.0",7,1
"jD9DLaZo1jwq1HQt3MjwiFBWPC","f1zw8EDQKr0B2RlgBrCHUD06aA",3531220,1258,FALSE,2,5,10669,"C4_1",6,"2.0",8,0
"jD9DLaZo1jwq1HQt3MjwiFBWPC","f1zw8EDQKr0B2RlgBrCHUD06aA",3536840,1259,FALSE,3,6,5616,"D5_1",6,"2.0",6,1
"jD9DLaZo1jwq1HQt3MjwiFBWPC","f1zw8EDQKr0B2RlgBrCHUD06aA",3542970,1260,FALSE,4,8,6128,"E1_1",6,"2.0",8,1
"jD9DLaZo1jwq1HQt3MjwiFBWPC","f1zw8EDQKr0B2RlgBrCHUD06aA",3548900,1261,FALSE,5,2,5927,"D1E3",6,"2.0",2,1
"jD9DLaZo1jwq1HQt3MjwiFBWPC","f1zw8EDQKr0B2RlgBrCHUD06aA",3558532,1262,FALSE,6,3,9629,"A2B4",6,"2.0",3,1
"jD9DLaZo1jwq1HQt3MjwiFBWPC","f1zw8EDQKr0B2RlgBrCHUD06aA",3572744,1263,FALSE,7,2,14209,"A3C5",6,"2.0",5,0
"jD9DLaZo1jwq1HQt3MjwiFBWPC","f1zw8EDQKr0B2RlgBrCHUD06aA",3582618,1264,FALSE,8,7,9871,"A4D1",6,"2.0",7,1
"jD9DLaZo1jwq1HQt3MjwiFBWPC","f1zw8EDQKr0B2RlgBrCHUD06aA",3589024,1265,FALSE,9,2,6403,"B1C3",6,"2.0",2,1
"jD9DLaZo1jwq1HQt3MjwiFBWPC","f1zw8EDQKr0B2RlgBrCHUD06aA",3593814,1266,FALSE,10,4,4787,"B2D4",6,"2.0",4,1
"jD9DLaZo1jwq1HQt3MjwiFBWPC","f1zw8EDQKr0B2RlgBrCHUD06aA",3601696,1267,FALSE,11,5,7879,"B3E5",6,"2.0",5,1
"jD9DLaZo1jwq1HQt3MjwiFBWPC","f1zw8EDQKr0B2RlgBrCHUD06aA",3608938,1268,FALSE,12,8,7239,"C4D1",6,"2.0",8,1
"jD9DLaZo1jwq1HQt3MjwiFBWPC","f1zw8EDQKr0B2RlgBrCHUD06aA",3624570,1269,FALSE,13,5,15629,"C5E2",6,"2.0",5,1
"jD9DLaZo1jwq1HQt3MjwiFBWPC","f1zw8EDQKr0B2RlgBrCHUD06aA",3646172,1270,FALSE,14,4,21599,"X_6",6,"2.0",4,1
"jD9DLaZo1jwq1HQt3MjwiFBWPC","f1zw8EDQKr0B2RlgBrCHUD06aA",3671320,1271,FALSE,15,5,25145,"Y_6",6,"2.0",8,0
"jD9DLaZo1jwq1HQt3MjwiFBWPC","f1zw8EDQKr0B2RlgBrCHUD06aA",3692506,1272,FALSE,16,1,21183,"Z_6",6,"2.0",2,0
"jD9DLaZo1jwq1HQt3MjwiFBWPC","f1zw8EDQKr0B2RlgBrCHUD06aA",3701764,1273,FALSE,17,7,9255,"A3B2D1_2",6,"2.0",7,1
"jD9DLaZo1jwq1HQt3MjwiFBWPC","f1zw8EDQKr0B2RlgBrCHUD06aA",3708818,1274,FALSE,18,3,7051,"A1B3E2",6,"2.0",3,1
"jD9DLaZo1jwq1HQt3MjwiFBWPC","f1zw8EDQKr0B2RlgBrCHUD06aA",3725444,1275,FALSE,19,6,16623,"B1C4E2",6,"2.0",2,0
"jD9DLaZo1jwq1HQt3MjwiFBWPC","f1zw8EDQKr0B2RlgBrCHUD06aA",3734100,1276,FALSE,20,8,8653,"A2B1D5",6,"2.0",8,1
"jD9DLaZo1jwq1HQt3MjwiFBWPC","f1zw8EDQKr0B2RlgBrCHUD06aA",3748560,1277,FALSE,21,1,14457,"B1C2E3",6,"2.0",1,1
"jD9DLaZo1jwq1HQt3MjwiFBWPC","f1zw8EDQKr0B2RlgBrCHUD06aA",3766170,1278,FALSE,22,7,17607,"A3B5D2",6,"2.0",4,0
"jD9DLaZo1jwq1HQt3MjwiFBWPC","f1zw8EDQKr0B2RlgBrCHUD06aA",3780052,1279,FALSE,23,2,13880,"A3B1C4",6,"2.0",3,0
"jD9DLaZo1jwq1HQt3MjwiFBWPC","f1zw8EDQKr0B2RlgBrCHUD06aA",3789810,1280,FALSE,24,6,9755,"A3B2D5",6,"2.0",6,1
"jD9DLaZo1jwq1HQt3MjwiFBWPC","f1zw8EDQKr0B2RlgBrCHUD06aA",3798590,1281,FALSE,25,1,8777,"A4B1E3",6,"2.0",1,1
"jD9DLaZo1jwq1HQt3MjwiFBWPC","f1zw8EDQKr0B2RlgBrCHUD06aA",3806786,1282,FALSE,26,6,8193,"B4C5D2",6,"2.0",6,1
"jD9DLaZo1jwq1HQt3MjwiFBWPC","f1zw8EDQKr0B2RlgBrCHUD06aA",3826263,1283,FALSE,27,6,19474,"B5C1D3",6,"2.0",6,1
"jD9DLaZo1jwq1HQt3MjwiFBWPC","f1zw8EDQKr0B2RlgBrCHUD06aA",3838020,1284,FALSE,28,2,11755,"A1B5E4",6,"2.0",2,1
"jD9DLaZo1jwq1HQt3MjwiFBWPC","f1zw8EDQKr0B2RlgBrCHUD06aA",3859026,1285,FALSE,29,1,21003,"C3D4E2",6,"2.0",1,1
"jD9DLaZo1jwq1HQt3MjwiFBWPC","f1zw8EDQKr0B2RlgBrCHUD06aA",3873464,1286,FALSE,30,5,14435,"B2C3E5",6,"2.0",6,0
"jD9DLaZo1jwq1HQt3MjwiFBWPC","f1zw8EDQKr0B2RlgBrCHUD06aA",3884080,1287,FALSE,31,3,10613,"A1D4E3",6,"2.0",4,0
"jD9DLaZo1jwq1HQt3MjwiFBWPC","f1zw8EDQKr0B2RlgBrCHUD06aA",3902760,1288,FALSE,32,6,18677,"A3B5C4_2",6,"2.0",7,0
"jD9DLaZo1jwq1HQt3MjwiFBWPC","f1zw8EDQKr0B2RlgBrCHUD06aA",3916080,1289,FALSE,33,7,13317,"A4B3D5_2",6,"2.0",2,0
"jD9DLaZo1jwq1HQt3MjwiFBWPC","f1zw8EDQKr0B2RlgBrCHUD06aA",3930986,1290,FALSE,34,3,14903,"A4B5E3_2",6,"2.0",3,1
"jD9DLaZo1jwq1HQt3MjwiFBWPC","f1zw8EDQKr0B2RlgBrCHUD06aA",3944338,1291,FALSE,35,3,13349,"A3C4D5_2",6,"2.0",1,0
"jD9DLaZo1jwq1HQt3MjwiFBWPC","f1zw8EDQKr0B2RlgBrCHUD06aA",3957260,1292,FALSE,36,3,12919,"A3C5E4_2",6,"2.0",3,1
"jD9DLaZo1jwq1HQt3MjwiFBWPC","f1zw8EDQKr0B2RlgBrCHUD06aA",3967298,1293,FALSE,37,1,10035,"A4D3E5_2",6,"2.0",1,1
"jD9DLaZo1jwq1HQt3MjwiFBWPC","f1zw8EDQKr0B2RlgBrCHUD06aA",3985798,1294,FALSE,38,6,18497,"B5C4D3_1",6,"2.0",7,0
"jD9DLaZo1jwq1HQt3MjwiFBWPC","f1zw8EDQKr0B2RlgBrCHUD06aA",3993102,1295,FALSE,39,4,7301,"B3C4E5_1",6,"2.0",4,1
"jD9DLaZo1jwq1HQt3MjwiFBWPC","f1zw8EDQKr0B2RlgBrCHUD06aA",4002829,1296,FALSE,40,2,9724,"B3D5E4_1",6,"2.0",1,0
"jD9DLaZo1jwq1HQt3MjwiFBWPC","f1zw8EDQKr0B2RlgBrCHUD06aA",4008868,1297,FALSE,41,3,6037,"C4D3E5_1",6,"2.0",3,1
"ta2uwIm5tNBrAjeo5kjrWFX4rg","gwi1uKFa5uP0lnIovraWhhZ9ws",944518,387,FALSE,0,7,20389,"A2_3",14,"3.0",1,0
"ta2uwIm5tNBrAjeo5kjrWFX4rg","gwi1uKFa5uP0lnIovraWhhZ9ws",965321,388,FALSE,1,6,20798,"B3_3",14,"3.0",3,0
"ta2uwIm5tNBrAjeo5kjrWFX4rg","gwi1uKFa5uP0lnIovraWhhZ9ws",973341,389,FALSE,2,8,8014,"C4_3",14,"3.0",1,0
"ta2uwIm5tNBrAjeo5kjrWFX4rg","gwi1uKFa5uP0lnIovraWhhZ9ws",982949,390,FALSE,3,5,9603,"D5_3",14,"3.0",7,0
"ta2uwIm5tNBrAjeo5kjrWFX4rg","gwi1uKFa5uP0lnIovraWhhZ9ws",1002520,391,FALSE,4,8,19565,"E1_3",14,"3.0",4,0
"ta2uwIm5tNBrAjeo5kjrWFX4rg","gwi1uKFa5uP0lnIovraWhhZ9ws",1017792,392,FALSE,5,6,15265,"C1D3",14,"3.0",1,0
"ta2uwIm5tNBrAjeo5kjrWFX4rg","gwi1uKFa5uP0lnIovraWhhZ9ws",1044897,393,FALSE,6,8,27099,"C2E4",14,"3.0",3,0
"ta2uwIm5tNBrAjeo5kjrWFX4rg","gwi1uKFa5uP0lnIovraWhhZ9ws",1072028,394,FALSE,7,5,27126,"D3E5",14,"3.0",4,0
"ta2uwIm5tNBrAjeo5kjrWFX4rg","gwi1uKFa5uP0lnIovraWhhZ9ws",1096616,395,FALSE,8,5,24583,"A4B1",14,"3.0",5,1
"ta2uwIm5tNBrAjeo5kjrWFX4rg","gwi1uKFa5uP0lnIovraWhhZ9ws",1107700,396,FALSE,9,8,11077,"A1D3",14,"3.0",8,1
"ta2uwIm5tNBrAjeo5kjrWFX4rg","gwi1uKFa5uP0lnIovraWhhZ9ws",1126590,397,FALSE,10,6,18884,"A2E4",14,"3.0",6,1
"ta2uwIm5tNBrAjeo5kjrWFX4rg","gwi1uKFa5uP0lnIovraWhhZ9ws",1139560,398,FALSE,11,1,12965,"B3C5",14,"3.0",8,0
"ta2uwIm5tNBrAjeo5kjrWFX4rg","gwi1uKFa5uP0lnIovraWhhZ9ws",1145369,399,FALSE,12,2,5801,"B4D1",14,"3.0",2,1
"ta2uwIm5tNBrAjeo5kjrWFX4rg","gwi1uKFa5uP0lnIovraWhhZ9ws",1155922,400,FALSE,13,8,10546,"B5E2",14,"3.0",3,0
"ta2uwIm5tNBrAjeo5kjrWFX4rg","gwi1uKFa5uP0lnIovraWhhZ9ws",1177425,401,FALSE,14,5,21495,"X_14",14,"3.0",5,1
"ta2uwIm5tNBrAjeo5kjrWFX4rg","gwi1uKFa5uP0lnIovraWhhZ9ws",1184898,402,FALSE,15,7,7465,"Y_14",14,"3.0",7,1
"ta2uwIm5tNBrAjeo5kjrWFX4rg","gwi1uKFa5uP0lnIovraWhhZ9ws",1213037,403,FALSE,16,8,28129,"Z_14",14,"3.0",8,1
"ta2uwIm5tNBrAjeo5kjrWFX4rg","gwi1uKFa5uP0lnIovraWhhZ9ws",1228540,404,FALSE,17,5,15495,"A4C2E1",14,"3.0",5,1
"ta2uwIm5tNBrAjeo5kjrWFX4rg","gwi1uKFa5uP0lnIovraWhhZ9ws",1240288,405,FALSE,18,2,11741,"A2B5C1",14,"3.0",4,0
"ta2uwIm5tNBrAjeo5kjrWFX4rg","gwi1uKFa5uP0lnIovraWhhZ9ws",1261209,406,FALSE,19,6,20915,"B1C3D2",14,"3.0",8,0
"ta2uwIm5tNBrAjeo5kjrWFX4rg","gwi1uKFa5uP0lnIovraWhhZ9ws",1289001,407,FALSE,20,2,27786,"C2D4E1",14,"3.0",2,1
"ta2uwIm5tNBrAjeo5kjrWFX4rg","gwi1uKFa5uP0lnIovraWhhZ9ws",1309932,408,FALSE,21,7,20924,"A2C1E5",14,"3.0",7,1
"ta2uwIm5tNBrAjeo5kjrWFX4rg","gwi1uKFa5uP0lnIovraWhhZ9ws",1323759,409,FALSE,22,8,13820,"A3B5C1",14,"3.0",5,0
"ta2uwIm5tNBrAjeo5kjrWFX4rg","gwi1uKFa5uP0lnIovraWhhZ9ws",1335732,410,FALSE,23,5,11964,"A4B2C3",14,"3.0",5,1
"ta2uwIm5tNBrAjeo5kjrWFX4rg","gwi1uKFa5uP0lnIovraWhhZ9ws",1364724,411,FALSE,24,6,28986,"A4B1D5",14,"3.0",6,1
"ta2uwIm5tNBrAjeo5kjrWFX4rg","gwi1uKFa5uP0lnIovraWhhZ9ws",1384174,412,FALSE,25,7,19445,"A3C2E4",14,"3.0",7,1
"ta2uwIm5tNBrAjeo5kjrWFX4rg","gwi1uKFa5uP0lnIovraWhhZ9ws",1399085,413,FALSE,26,5,14905,"A1B5C4",14,"3.0",3,0
"ta2uwIm5tNBrAjeo5kjrWFX4rg","gwi1uKFa5uP0lnIovraWhhZ9ws",1407976,414,FALSE,27,2,8882,"B3D4E2",14,"3.0",2,1
"ta2uwIm5tNBrAjeo5kjrWFX4rg","gwi1uKFa5uP0lnIovraWhhZ9ws",1422406,415,FALSE,28,8,14425,"B3C1E5",14,"3.0",8,1
"ta2uwIm5tNBrAjeo5kjrWFX4rg","gwi1uKFa5uP0lnIovraWhhZ9ws",1433853,416,FALSE,29,1,11441,"A1C4D3",14,"3.0",1,1
"ta2uwIm5tNBrAjeo5kjrWFX4rg","gwi1uKFa5uP0lnIovraWhhZ9ws",1450309,417,FALSE,30,4,16449,"C4D2E5",14,"3.0",4,1
"ta2uwIm5tNBrAjeo5kjrWFX4rg","gwi1uKFa5uP0lnIovraWhhZ9ws",1468030,418,FALSE,31,1,17713,"B1D5E3",14,"3.0",3,0
"ta2uwIm5tNBrAjeo5kjrWFX4rg","gwi1uKFa5uP0lnIovraWhhZ9ws",1491780,419,FALSE,32,3,23743,"A3B5C4_4",14,"3.0",6,0
"ta2uwIm5tNBrAjeo5kjrWFX4rg","gwi1uKFa5uP0lnIovraWhhZ9ws",1506814,420,FALSE,33,4,15027,"A4B3D5_4",14,"3.0",1,0
"ta2uwIm5tNBrAjeo5kjrWFX4rg","gwi1uKFa5uP0lnIovraWhhZ9ws",1521590,421,FALSE,34,2,14768,"A4B5E3_4",14,"3.0",6,0
"ta2uwIm5tNBrAjeo5kjrWFX4rg","gwi1uKFa5uP0lnIovraWhhZ9ws",1537420,422,FALSE,35,4,15824,"A3C4D5_4",14,"3.0",6,0
"ta2uwIm5tNBrAjeo5kjrWFX4rg","gwi1uKFa5uP0lnIovraWhhZ9ws",1562040,423,FALSE,36,7,24615,"A3C5E4_4",14,"3.0",2,0
"ta2uwIm5tNBrAjeo5kjrWFX4rg","gwi1uKFa5uP0lnIovraWhhZ9ws",1581335,424,FALSE,37,1,19289,"A4D3E5_4",14,"3.0",1,1
"ta2uwIm5tNBrAjeo5kjrWFX4rg","gwi1uKFa5uP0lnIovraWhhZ9ws",1592357,425,FALSE,38,6,11017,"B3C5D4_3",14,"3.0",6,1
"ta2uwIm5tNBrAjeo5kjrWFX4rg","gwi1uKFa5uP0lnIovraWhhZ9ws",1601208,426,FALSE,39,8,8845,"B4C3E5_3",14,"3.0",4,0
"ta2uwIm5tNBrAjeo5kjrWFX4rg","gwi1uKFa5uP0lnIovraWhhZ9ws",1617018,427,FALSE,40,3,15803,"B4D5E3_3",14,"3.0",7,0
"ta2uwIm5tNBrAjeo5kjrWFX4rg","gwi1uKFa5uP0lnIovraWhhZ9ws",1624749,428,FALSE,41,2,7725,"C5D3E4_3",14,"3.0",2,1
"C6FdaOsLL8vp2sdEAFgmzZ0hf3","SzS7arHMhlzKZx0dpCAQb5EaO9",3493083,903,FALSE,0,3,17544,"A4_1",20,"2.0",2,0
"C6FdaOsLL8vp2sdEAFgmzZ0hf3","SzS7arHMhlzKZx0dpCAQb5EaO9",3503128,904,FALSE,1,6,10039,"B5_4",20,"2.0",6,1
"C6FdaOsLL8vp2sdEAFgmzZ0hf3","SzS7arHMhlzKZx0dpCAQb5EaO9",3510157,905,FALSE,2,4,7023,"C1_4",20,"2.0",4,1
"C6FdaOsLL8vp2sdEAFgmzZ0hf3","SzS7arHMhlzKZx0dpCAQb5EaO9",3518281,906,FALSE,3,7,8118,"D2_4",20,"2.0",7,1
"C6FdaOsLL8vp2sdEAFgmzZ0hf3","SzS7arHMhlzKZx0dpCAQb5EaO9",3527501,907,FALSE,4,6,9214,"E3_4",20,"2.0",2,0
"C6FdaOsLL8vp2sdEAFgmzZ0hf3","SzS7arHMhlzKZx0dpCAQb5EaO9",3534077,908,FALSE,5,1,6570,"B1E5",20,"2.0",3,0
"C6FdaOsLL8vp2sdEAFgmzZ0hf3","SzS7arHMhlzKZx0dpCAQb5EaO9",3542631,909,FALSE,6,7,8547,"C2D1",20,"2.0",1,0
"C6FdaOsLL8vp2sdEAFgmzZ0hf3","SzS7arHMhlzKZx0dpCAQb5EaO9",3550430,910,FALSE,7,2,7793,"C3E2",20,"2.0",3,0
"C6FdaOsLL8vp2sdEAFgmzZ0hf3","SzS7arHMhlzKZx0dpCAQb5EaO9",3557960,911,FALSE,8,6,7524,"D4E3",20,"2.0",1,0
"C6FdaOsLL8vp2sdEAFgmzZ0hf3","SzS7arHMhlzKZx0dpCAQb5EaO9",3565060,912,FALSE,9,1,7094,"A1C5",20,"2.0",4,0
"C6FdaOsLL8vp2sdEAFgmzZ0hf3","SzS7arHMhlzKZx0dpCAQb5EaO9",3569767,913,FALSE,10,6,4701,"A2D1",20,"2.0",1,0
"C6FdaOsLL8vp2sdEAFgmzZ0hf3","SzS7arHMhlzKZx0dpCAQb5EaO9",3578995,914,FALSE,11,5,9221,"A3E2",20,"2.0",3,0
"C6FdaOsLL8vp2sdEAFgmzZ0hf3","SzS7arHMhlzKZx0dpCAQb5EaO9",3587294,915,FALSE,12,6,8293,"B4C3",20,"2.0",4,0
"C6FdaOsLL8vp2sdEAFgmzZ0hf3","SzS7arHMhlzKZx0dpCAQb5EaO9",3591581,916,FALSE,13,8,4282,"B5D4",20,"2.0",5,0
"C6FdaOsLL8vp2sdEAFgmzZ0hf3","SzS7arHMhlzKZx0dpCAQb5EaO9",3600451,917,FALSE,14,6,8864,"X_20",20,"2.0",7,0
"C6FdaOsLL8vp2sdEAFgmzZ0hf3","SzS7arHMhlzKZx0dpCAQb5EaO9",3609446,918,FALSE,15,1,8990,"Y_20",20,"2.0",8,0
"C6FdaOsLL8vp2sdEAFgmzZ0hf3","SzS7arHMhlzKZx0dpCAQb5EaO9",3621631,919,FALSE,16,5,12179,"Z_20",20,"2.0",6,0
"C6FdaOsLL8vp2sdEAFgmzZ0hf3","SzS7arHMhlzKZx0dpCAQb5EaO9",3630509,920,FALSE,17,2,8872,"A4B1C2",20,"2.0",7,0
"C6FdaOsLL8vp2sdEAFgmzZ0hf3","SzS7arHMhlzKZx0dpCAQb5EaO9",3636480,921,FALSE,18,4,5964,"A2B5E1",20,"2.0",8,0
"C6FdaOsLL8vp2sdEAFgmzZ0hf3","SzS7arHMhlzKZx0dpCAQb5EaO9",3644608,922,FALSE,19,2,8123,"C3D1E2",20,"2.0",2,1
"C6FdaOsLL8vp2sdEAFgmzZ0hf3","SzS7arHMhlzKZx0dpCAQb5EaO9",3654677,923,FALSE,20,2,10063,"A1D4E2",20,"2.0",4,0
"C6FdaOsLL8vp2sdEAFgmzZ0hf3","SzS7arHMhlzKZx0dpCAQb5EaO9",3659842,924,FALSE,21,7,5157,"B2C1E5",20,"2.0",5,0
"C6FdaOsLL8vp2sdEAFgmzZ0hf3","SzS7arHMhlzKZx0dpCAQb5EaO9",3669408,925,FALSE,22,5,9558,"A3B5E1",20,"2.0",8,0
"C6FdaOsLL8vp2sdEAFgmzZ0hf3","SzS7arHMhlzKZx0dpCAQb5EaO9",3675912,926,FALSE,23,8,6497,"A4C3D2",20,"2.0",5,0
"C6FdaOsLL8vp2sdEAFgmzZ0hf3","SzS7arHMhlzKZx0dpCAQb5EaO9",3696923,927,FALSE,24,6,21004,"A4D5E1",20,"2.0",4,0
"C6FdaOsLL8vp2sdEAFgmzZ0hf3","SzS7arHMhlzKZx0dpCAQb5EaO9",3708572,928,FALSE,25,8,11642,"A4D2E5",20,"2.0",8,1
"C6FdaOsLL8vp2sdEAFgmzZ0hf3","SzS7arHMhlzKZx0dpCAQb5EaO9",3713292,929,FALSE,26,5,4714,"B5C4D1",20,"2.0",2,0
"C6FdaOsLL8vp2sdEAFgmzZ0hf3","SzS7arHMhlzKZx0dpCAQb5EaO9",3717642,930,FALSE,27,6,4343,"B3C2D4",20,"2.0",7,0
"C6FdaOsLL8vp2sdEAFgmzZ0hf3","SzS7arHMhlzKZx0dpCAQb5EaO9",3721266,931,FALSE,28,5,3618,"A2B3E5",20,"2.0",5,1
"C6FdaOsLL8vp2sdEAFgmzZ0hf3","SzS7arHMhlzKZx0dpCAQb5EaO9",3726792,932,FALSE,29,5,5521,"C4D3E1",20,"2.0",5,1
"C6FdaOsLL8vp2sdEAFgmzZ0hf3","SzS7arHMhlzKZx0dpCAQb5EaO9",3735950,933,FALSE,30,2,9151,"B2C4E5",20,"2.0",6,0
"C6FdaOsLL8vp2sdEAFgmzZ0hf3","SzS7arHMhlzKZx0dpCAQb5EaO9",3740225,934,FALSE,31,5,4269,"A2D5E3",20,"2.0",7,0
"C6FdaOsLL8vp2sdEAFgmzZ0hf3","SzS7arHMhlzKZx0dpCAQb5EaO9",3748513,935,FALSE,32,4,8282,"A4B5C3_5",20,"2.0",3,0
"C6FdaOsLL8vp2sdEAFgmzZ0hf3","SzS7arHMhlzKZx0dpCAQb5EaO9",3754197,936,FALSE,33,1,5678,"A3B4D5_5",20,"2.0",2,0
"C6FdaOsLL8vp2sdEAFgmzZ0hf3","SzS7arHMhlzKZx0dpCAQb5EaO9",3758203,937,FALSE,34,4,4001,"A3B5E4_5",20,"2.0",3,0
"C6FdaOsLL8vp2sdEAFgmzZ0hf3","SzS7arHMhlzKZx0dpCAQb5EaO9",3762531,938,FALSE,35,7,4321,"A4C3D5_5",20,"2.0",1,0
"C6FdaOsLL8vp2sdEAFgmzZ0hf3","SzS7arHMhlzKZx0dpCAQb5EaO9",3769285,939,FALSE,36,2,6750,"A4C5E3_5",20,"2.0",4,0
"C6FdaOsLL8vp2sdEAFgmzZ0hf3","SzS7arHMhlzKZx0dpCAQb5EaO9",3776105,940,FALSE,37,5,6813,"A3D4E5_5",20,"2.0",3,0
"C6FdaOsLL8vp2sdEAFgmzZ0hf3","SzS7arHMhlzKZx0dpCAQb5EaO9",3781668,941,FALSE,38,6,5556,"B3C5D4_4",20,"2.0",6,1
"C6FdaOsLL8vp2sdEAFgmzZ0hf3","SzS7arHMhlzKZx0dpCAQb5EaO9",3789363,942,FALSE,39,5,7689,"B4C3E5_4",20,"2.0",1,0
"C6FdaOsLL8vp2sdEAFgmzZ0hf3","SzS7arHMhlzKZx0dpCAQb5EaO9",3794583,943,FALSE,40,5,5214,"B4D5E3_4",20,"2.0",6,0
"C6FdaOsLL8vp2sdEAFgmzZ0hf3","SzS7arHMhlzKZx0dpCAQb5EaO9",3801535,944,FALSE,41,2,6946,"C5D3E4_4",20,"2.0",6,0
"tbCTQoAafrGj5o6gPjlOQQ6qwi","pwlPELCrjkCJEZrgVTkfFDQT0T",13224171,1297,FALSE,0,1,5338,"B1_4",4,"3.0",6,0
"tbCTQoAafrGj5o6gPjlOQQ6qwi","pwlPELCrjkCJEZrgVTkfFDQT0T",13228463,1298,FALSE,1,7,4289,"C2_4",4,"3.0",8,0
"tbCTQoAafrGj5o6gPjlOQQ6qwi","pwlPELCrjkCJEZrgVTkfFDQT0T",13234991,1299,FALSE,2,2,6524,"D3_4",4,"3.0",2,1
"tbCTQoAafrGj5o6gPjlOQQ6qwi","pwlPELCrjkCJEZrgVTkfFDQT0T",13243695,1300,FALSE,3,3,8701,"E4_4",4,"3.0",3,1
"tbCTQoAafrGj5o6gPjlOQQ6qwi","pwlPELCrjkCJEZrgVTkfFDQT0T",13249499,1301,FALSE,4,3,5800,"A1B5",4,"3.0",5,0
"tbCTQoAafrGj5o6gPjlOQQ6qwi","pwlPELCrjkCJEZrgVTkfFDQT0T",13274579,1302,FALSE,5,4,25076,"A2C1",4,"3.0",7,0
"tbCTQoAafrGj5o6gPjlOQQ6qwi","pwlPELCrjkCJEZrgVTkfFDQT0T",13289203,1303,FALSE,6,8,14621,"A3D2",4,"3.0",8,1
"tbCTQoAafrGj5o6gPjlOQQ6qwi","pwlPELCrjkCJEZrgVTkfFDQT0T",13320480,1304,TRUE,7,NA,31273,"A4E3",4,"3.0",2,NA
"tbCTQoAafrGj5o6gPjlOQQ6qwi","pwlPELCrjkCJEZrgVTkfFDQT0T",13327911,1305,FALSE,8,7,7428,"B5C4",4,"3.0",4,0
"tbCTQoAafrGj5o6gPjlOQQ6qwi","pwlPELCrjkCJEZrgVTkfFDQT0T",13333288,1306,FALSE,9,6,5372,"B1D5",4,"3.0",5,0
"tbCTQoAafrGj5o6gPjlOQQ6qwi","pwlPELCrjkCJEZrgVTkfFDQT0T",13339199,1307,FALSE,10,8,5909,"B2E1",4,"3.0",8,1
"tbCTQoAafrGj5o6gPjlOQQ6qwi","pwlPELCrjkCJEZrgVTkfFDQT0T",13345884,1308,FALSE,11,5,6681,"C3D2",4,"3.0",5,1
"tbCTQoAafrGj5o6gPjlOQQ6qwi","pwlPELCrjkCJEZrgVTkfFDQT0T",13354640,1309,FALSE,12,3,8753,"C4E3",4,"3.0",4,0
"tbCTQoAafrGj5o6gPjlOQQ6qwi","pwlPELCrjkCJEZrgVTkfFDQT0T",13363259,1310,FALSE,13,8,8616,"D5E4",4,"3.0",8,1
"tbCTQoAafrGj5o6gPjlOQQ6qwi","pwlPELCrjkCJEZrgVTkfFDQT0T",13394261,1311,TRUE,14,NA,30999,"X_4",4,"3.0",2,NA
"tbCTQoAafrGj5o6gPjlOQQ6qwi","pwlPELCrjkCJEZrgVTkfFDQT0T",13425263,1312,TRUE,15,NA,30999,"Y_4",4,"3.0",7,NA
"tbCTQoAafrGj5o6gPjlOQQ6qwi","pwlPELCrjkCJEZrgVTkfFDQT0T",13456265,1313,TRUE,16,NA,30999,"Z_4",4,"3.0",5,NA
"tbCTQoAafrGj5o6gPjlOQQ6qwi","pwlPELCrjkCJEZrgVTkfFDQT0T",13480347,1314,FALSE,17,8,24079,"A3B2D1_1",4,"3.0",2,0
"tbCTQoAafrGj5o6gPjlOQQ6qwi","pwlPELCrjkCJEZrgVTkfFDQT0T",13486451,1315,FALSE,18,8,6100,"B4C1D2",4,"3.0",8,1
"tbCTQoAafrGj5o6gPjlOQQ6qwi","pwlPELCrjkCJEZrgVTkfFDQT0T",13517453,1316,TRUE,19,NA,30999,"C5D2E1",4,"3.0",1,NA
"tbCTQoAafrGj5o6gPjlOQQ6qwi","pwlPELCrjkCJEZrgVTkfFDQT0T",13525707,1317,FALSE,20,1,8251,"A2B1D3",4,"3.0",4,0
"tbCTQoAafrGj5o6gPjlOQQ6qwi","pwlPELCrjkCJEZrgVTkfFDQT0T",13538235,1318,FALSE,21,3,12525,"A1D2E4",4,"3.0",3,1
"tbCTQoAafrGj5o6gPjlOQQ6qwi","pwlPELCrjkCJEZrgVTkfFDQT0T",13550251,1319,FALSE,22,4,12012,"A4B5C2",4,"3.0",6,0
"tbCTQoAafrGj5o6gPjlOQQ6qwi","pwlPELCrjkCJEZrgVTkfFDQT0T",13579847,1320,FALSE,23,1,29592,"A3C4D1",4,"3.0",1,1
"tbCTQoAafrGj5o6gPjlOQQ6qwi","pwlPELCrjkCJEZrgVTkfFDQT0T",13590343,1321,FALSE,24,3,10492,"A3C2D5",4,"3.0",6,0
"tbCTQoAafrGj5o6gPjlOQQ6qwi","pwlPELCrjkCJEZrgVTkfFDQT0T",13601391,1322,FALSE,25,6,11044,"A3B1E4",4,"3.0",6,1
"tbCTQoAafrGj5o6gPjlOQQ6qwi","pwlPELCrjkCJEZrgVTkfFDQT0T",13612171,1323,FALSE,26,5,10777,"B3C5D2",4,"3.0",2,0
"tbCTQoAafrGj5o6gPjlOQQ6qwi","pwlPELCrjkCJEZrgVTkfFDQT0T",13635312,1324,FALSE,27,1,23136,"B4C1D3",4,"3.0",1,1
"tbCTQoAafrGj5o6gPjlOQQ6qwi","pwlPELCrjkCJEZrgVTkfFDQT0T",13646571,1325,FALSE,28,3,11256,"A1B4E5",4,"3.0",6,0
"tbCTQoAafrGj5o6gPjlOQQ6qwi","pwlPELCrjkCJEZrgVTkfFDQT0T",13680476,1326,TRUE,29,NA,33902,"C5D3E2",4,"3.0",4,NA
"tbCTQoAafrGj5o6gPjlOQQ6qwi","pwlPELCrjkCJEZrgVTkfFDQT0T",13752179,1327,FALSE,30,6,71700,"B1C5E4",4,"3.0",7,0
"tbCTQoAafrGj5o6gPjlOQQ6qwi","pwlPELCrjkCJEZrgVTkfFDQT0T",13758012,1328,FALSE,31,4,5829,"A1D3E4",4,"3.0",2,0
"tbCTQoAafrGj5o6gPjlOQQ6qwi","pwlPELCrjkCJEZrgVTkfFDQT0T",13768451,1329,FALSE,32,5,10437,"A4B5C3_1",4,"3.0",3,0
"tbCTQoAafrGj5o6gPjlOQQ6qwi","pwlPELCrjkCJEZrgVTkfFDQT0T",13777219,1330,FALSE,33,3,8764,"A3B4D5_1",4,"3.0",1,0
"tbCTQoAafrGj5o6gPjlOQQ6qwi","pwlPELCrjkCJEZrgVTkfFDQT0T",13787747,1331,FALSE,34,2,10525,"A3B5E4_1",4,"3.0",3,0
"tbCTQoAafrGj5o6gPjlOQQ6qwi","pwlPELCrjkCJEZrgVTkfFDQT0T",13794095,1332,FALSE,35,6,6345,"A4C3D5_1",4,"3.0",1,0
"tbCTQoAafrGj5o6gPjlOQQ6qwi","pwlPELCrjkCJEZrgVTkfFDQT0T",13803451,1333,FALSE,36,7,9353,"A4C5E3_1",4,"3.0",7,1
"tbCTQoAafrGj5o6gPjlOQQ6qwi","pwlPELCrjkCJEZrgVTkfFDQT0T",13814047,1334,FALSE,37,8,10593,"A3D4E5_1",4,"3.0",4,0
"tbCTQoAafrGj5o6gPjlOQQ6qwi","pwlPELCrjkCJEZrgVTkfFDQT0T",13821623,1335,FALSE,38,3,7573,"B4C5D3_1",4,"3.0",1,0
"tbCTQoAafrGj5o6gPjlOQQ6qwi","pwlPELCrjkCJEZrgVTkfFDQT0T",13834375,1336,FALSE,39,5,12749,"B5C3E4_1",4,"3.0",3,0
"tbCTQoAafrGj5o6gPjlOQQ6qwi","pwlPELCrjkCJEZrgVTkfFDQT0T",13852319,1337,FALSE,40,5,17941,"B5D4E3_1",4,"3.0",4,0
"tbCTQoAafrGj5o6gPjlOQQ6qwi","pwlPELCrjkCJEZrgVTkfFDQT0T",13853987,1338,FALSE,41,7,1664,"C3D4E5_1",4,"3.0",5,0
"qy2ies2MnUrMAg3lka97bXkkxI","mculQR8IUlq2JRACpF34aZtwYL",4609304,1286,FALSE,0,6,3701,"A1_1",5,"3.0",6,1
"qy2ies2MnUrMAg3lka97bXkkxI","mculQR8IUlq2JRACpF34aZtwYL",4613656,1287,FALSE,1,8,4349,"B2_1",5,"3.0",8,1
"qy2ies2MnUrMAg3lka97bXkkxI","mculQR8IUlq2JRACpF34aZtwYL",4619870,1288,FALSE,2,7,6212,"C3_1",5,"3.0",7,1
"qy2ies2MnUrMAg3lka97bXkkxI","mculQR8IUlq2JRACpF34aZtwYL",4628990,1289,FALSE,3,8,9118,"D4_1",5,"3.0",8,1
"qy2ies2MnUrMAg3lka97bXkkxI","mculQR8IUlq2JRACpF34aZtwYL",4634940,1290,FALSE,4,2,5948,"E5_1",5,"3.0",2,1
"qy2ies2MnUrMAg3lka97bXkkxI","mculQR8IUlq2JRACpF34aZtwYL",4642356,1291,FALSE,5,8,7413,"D1E2",5,"3.0",3,0
"qy2ies2MnUrMAg3lka97bXkkxI","mculQR8IUlq2JRACpF34aZtwYL",4651972,1292,FALSE,6,5,9613,"A2B3",5,"3.0",5,1
"qy2ies2MnUrMAg3lka97bXkkxI","mculQR8IUlq2JRACpF34aZtwYL",4677385,1293,FALSE,7,5,25410,"A3C4",5,"3.0",7,0
"qy2ies2MnUrMAg3lka97bXkkxI","mculQR8IUlq2JRACpF34aZtwYL",4687587,1294,FALSE,8,8,10200,"A4D5",5,"3.0",5,0
"qy2ies2MnUrMAg3lka97bXkkxI","mculQR8IUlq2JRACpF34aZtwYL",4693839,1295,FALSE,9,4,6248,"B1C2",5,"3.0",4,1
"qy2ies2MnUrMAg3lka97bXkkxI","mculQR8IUlq2JRACpF34aZtwYL",4703504,1296,FALSE,10,4,9663,"B2D3",5,"3.0",5,0
"qy2ies2MnUrMAg3lka97bXkkxI","mculQR8IUlq2JRACpF34aZtwYL",4713018,1297,FALSE,11,8,9512,"B3E4",5,"3.0",8,1
"qy2ies2MnUrMAg3lka97bXkkxI","mculQR8IUlq2JRACpF34aZtwYL",4725444,1298,FALSE,12,5,12423,"C4D5",5,"3.0",5,1
"qy2ies2MnUrMAg3lka97bXkkxI","mculQR8IUlq2JRACpF34aZtwYL",4731853,1299,FALSE,13,4,6407,"C5E1",5,"3.0",4,1
"qy2ies2MnUrMAg3lka97bXkkxI","mculQR8IUlq2JRACpF34aZtwYL",4753196,1300,FALSE,14,8,21341,"X_5",5,"3.0",8,1
"qy2ies2MnUrMAg3lka97bXkkxI","mculQR8IUlq2JRACpF34aZtwYL",4766169,1301,FALSE,15,2,12970,"Y_5",5,"3.0",2,1
"qy2ies2MnUrMAg3lka97bXkkxI","mculQR8IUlq2JRACpF34aZtwYL",4776347,1302,FALSE,16,7,10176,"Z_5",5,"3.0",7,1
"qy2ies2MnUrMAg3lka97bXkkxI","mculQR8IUlq2JRACpF34aZtwYL",4787136,1303,FALSE,17,6,10786,"A4B1D2",5,"3.0",3,0
"qy2ies2MnUrMAg3lka97bXkkxI","mculQR8IUlq2JRACpF34aZtwYL",4798220,1304,FALSE,18,8,11082,"B5C2D1",5,"3.0",2,0
"qy2ies2MnUrMAg3lka97bXkkxI","mculQR8IUlq2JRACpF34aZtwYL",4814730,1305,FALSE,19,8,16507,"B1C3E2",5,"3.0",8,1
"qy2ies2MnUrMAg3lka97bXkkxI","mculQR8IUlq2JRACpF34aZtwYL",4826164,1306,FALSE,20,6,11431,"A1B2D4",5,"3.0",1,0
"qy2ies2MnUrMAg3lka97bXkkxI","mculQR8IUlq2JRACpF34aZtwYL",4836539,1307,FALSE,21,4,10372,"A2D1E5",5,"3.0",4,1
"qy2ies2MnUrMAg3lka97bXkkxI","mculQR8IUlq2JRACpF34aZtwYL",4850976,1308,FALSE,22,7,14434,"A3B4D1",5,"3.0",3,0
"qy2ies2MnUrMAg3lka97bXkkxI","mculQR8IUlq2JRACpF34aZtwYL",4864162,1309,FALSE,23,7,13184,"A3C5D2",5,"3.0",6,0
"qy2ies2MnUrMAg3lka97bXkkxI","mculQR8IUlq2JRACpF34aZtwYL",4872514,1310,FALSE,24,6,8350,"A3B1D4",5,"3.0",1,0
"qy2ies2MnUrMAg3lka97bXkkxI","mculQR8IUlq2JRACpF34aZtwYL",4892592,1311,FALSE,25,8,20076,"A3B2E5",5,"3.0",6,0
"qy2ies2MnUrMAg3lka97bXkkxI","mculQR8IUlq2JRACpF34aZtwYL",4903214,1312,FALSE,26,5,10620,"B4C3D1",5,"3.0",6,0
"qy2ies2MnUrMAg3lka97bXkkxI","mculQR8IUlq2JRACpF34aZtwYL",4916772,1313,FALSE,27,8,13556,"B4C2D5",5,"3.0",2,0
"qy2ies2MnUrMAg3lka97bXkkxI","mculQR8IUlq2JRACpF34aZtwYL",4933298,1314,FALSE,28,1,16524,"A2B5E3",5,"3.0",1,1
"qy2ies2MnUrMAg3lka97bXkkxI","mculQR8IUlq2JRACpF34aZtwYL",4949176,1315,FALSE,29,6,15876,"C5D4E1",5,"3.0",6,1
"qy2ies2MnUrMAg3lka97bXkkxI","mculQR8IUlq2JRACpF34aZtwYL",4967477,1316,FALSE,30,5,18298,"B2C3E4",5,"3.0",4,0
"qy2ies2MnUrMAg3lka97bXkkxI","mculQR8IUlq2JRACpF34aZtwYL",4982469,1317,FALSE,31,1,14990,"A2D3E5",5,"3.0",7,0
"qy2ies2MnUrMAg3lka97bXkkxI","mculQR8IUlq2JRACpF34aZtwYL",5000903,1318,FALSE,32,8,18431,"A3B4C5_2",5,"3.0",2,0
"qy2ies2MnUrMAg3lka97bXkkxI","mculQR8IUlq2JRACpF34aZtwYL",5016809,1319,FALSE,33,8,15904,"A3B5D4_2",5,"3.0",3,0
"qy2ies2MnUrMAg3lka97bXkkxI","mculQR8IUlq2JRACpF34aZtwYL",5028015,1320,FALSE,34,4,11204,"A4B3E5_2",5,"3.0",1,0
"qy2ies2MnUrMAg3lka97bXkkxI","mculQR8IUlq2JRACpF34aZtwYL",5030550,1321,FALSE,35,6,2532,"A4C5D3_2",5,"3.0",3,0
"qy2ies2MnUrMAg3lka97bXkkxI","mculQR8IUlq2JRACpF34aZtwYL",5033367,1322,FALSE,36,3,2814,"A3C4E5_2",5,"3.0",1,0
"qy2ies2MnUrMAg3lka97bXkkxI","mculQR8IUlq2JRACpF34aZtwYL",5035075,1323,FALSE,37,7,1706,"A3D5E4_2",5,"3.0",7,1
"qy2ies2MnUrMAg3lka97bXkkxI","mculQR8IUlq2JRACpF34aZtwYL",5036702,1324,FALSE,38,1,1624,"B5C3D4_1",5,"3.0",4,0
"qy2ies2MnUrMAg3lka97bXkkxI","mculQR8IUlq2JRACpF34aZtwYL",5038255,1325,FALSE,39,8,1550,"B5C4E3_1",5,"3.0",1,0
"qy2ies2MnUrMAg3lka97bXkkxI","mculQR8IUlq2JRACpF34aZtwYL",5039953,1326,FALSE,40,2,1696,"B3D4E5_1",5,"3.0",3,0
"qy2ies2MnUrMAg3lka97bXkkxI","mculQR8IUlq2JRACpF34aZtwYL",5041505,1327,FALSE,41,6,1550,"C3D5E4_1",5,"3.0",4,0
"biu5BgZV2AePGJMpaEXIG7u0N3","MxUO7NYXSHEzSTEPowvnyo0Gds",766487,50,FALSE,0,1,7710,"A2_3",14,"3.0",1,1
"biu5BgZV2AePGJMpaEXIG7u0N3","MxUO7NYXSHEzSTEPowvnyo0Gds",774712,51,FALSE,1,3,8222,"B3_3",14,"3.0",3,1
"biu5BgZV2AePGJMpaEXIG7u0N3","MxUO7NYXSHEzSTEPowvnyo0Gds",789568,52,FALSE,2,1,14853,"C4_3",14,"3.0",1,1
