"session_id","session_restart_id","time_elapsed","trial_index","custom_timer_ended_trial","rt","crt_1","crt_2","crt_3","crt_4","crt_5","crt_6","crt_7","wave","crt_correct_1","crt_correct_2","crt_correct_3","crt_correct_4","crt_correct_5","crt_correct_6","crt_correct_7","crt_correct_mean"
"Z74YBwECpL8QkLR6RuxT2rrff6","hkshJADA5gEvvtwdyiZzMC4WH7",1067615,620,FALSE,206441,"10 cents","5 minutes","24 days","4 days","30 students","20 dollars","has lost money.","3.0",0,1,0,1,0,1,1,0.571428571428571
"NhLuEUpFKVLMXcgOH9FRZibbUN","8bqynu00xCMLlut8SOlhm9JjIj",1466157,728,FALSE,115117,"10 cents","100 minutes","47 days","12 days","30 students","20 dollars","is ahead of where he began.","3.0",0,0,1,0,0,1,0,0.285714285714286
"roE5s1646kIDOHR2ypn0gY8XIG","28TcpfsssHRGwhYTS43NorZ2aj",641682,588,FALSE,181172,"10 cents","100 minutes","12 days","3 days","1 student","0 dollars","has broken even in the stock market.","2.0",0,0,0,0,0,0,0,0
"tLSjGm6Dqri4nsVHHnkVL8G3V4","VYycXONC2I51jJfJmnalaU8NU2",1549881,824,FALSE,51204,"10 cents","20 minutes","24 days","12 days","29 students","0 dollars","has broken even in the stock market.","2.0",0,0,0,0,1,0,0,0.142857142857143
"W6lW7tpcdPnwidSMJyh0KrZtZ9","FC4UOASx57sEFVAZBJFSxdRL5X",971363,241,FALSE,16560,"10 cents","20 minutes","24 days","9 days","30 students","10 dollars","has broken even in the stock market.","3.0",0,0,0,0,0,0,0,0
"Ox2JDobTVCybEB6T15i8Cf82Z1","6tVhik6yMDBEBQwVOgIqfCrq0H",1930072,1112,FALSE,10343,"1 cent","20 minutes","24 days","9 days","30 students","10 dollars","has broken even in the stock market.","2.0",0,0,0,0,0,0,0,0
"WiMJRTZtpieHRm3ClAWipoHr0C","SGb3o2ONPK215NplFlfdAm7wub",2499487,747,FALSE,113552,"10 cents","100 minutes","24 days","9 days","30 students","20 dollars","is ahead of where he began.","2.0",0,0,0,0,0,1,0,0.142857142857143
"DebsBC0abituuuNqZbrWt3jR91","u09piBR9Rt2XBjdzMPHEKX1BQv",1565710,270,FALSE,46969,"10 cents","100 minutes","24 days","4 days","30 students","10 dollars","is ahead of where he began.","3.0",0,0,0,1,0,0,0,0.142857142857143
"pXLD8gCCp0YZ9CquUV1lQCIj5c","1zlxdqkJSNjpxeTuzeYDS0hy3y",3607817,1159,FALSE,100928,"10 cents","100 minutes","24 days","9 days","30 students","10 dollars","is ahead of where he began.","3.0",0,0,0,0,0,0,0,0
"rDRcOADIKvymJ2TSyULLnxWo4D","6buOomZW04tVoIyk2wo6RJC08Q",360586,18,FALSE,132381,"5 cents","100 minutes","12 days","4 days","30 students","30 dollars","has lost money.","3.0",1,0,0,1,0,0,1,0.428571428571429
"q4nRVOcjo2BHXLaJItbKSgI6Cl","gkstQDYnOuTw7vuImoEZYZ5h09",114322,11,FALSE,96503,"5 cents","5 minutes","47 days","4 days","29 students","20 dollars","has lost money.","3.0",1,1,1,1,1,1,1,1
"Mx8vIXApijMaRfRVx5CwheNj7R","sRPWARk8wXzRjwNYFCV7c96tAO",180860,11,FALSE,167167,"5 cents","5 minutes","47 days","9 days","30 students","30 dollars","is ahead of where he began.","2.0",1,1,1,0,0,0,0,0.428571428571429
"Scbpoqeq5cPbK4S6JgkDakbaJk","Koo6td3nw4YcorjR8C72YXgklR",667113,593,FALSE,93284,"10 cents","5 minutes","47 days","9 days","30 students","10 dollars","has lost money.","2.0",0,1,1,0,0,0,1,0.428571428571429
"eFe95CeeQAgOoze8mvOzVQ4Hv6","VjYssdBmru7tOalICnyFgzyX5R",1026278,136,FALSE,148502,"5 cents","5 minutes","47 days","9 days","29 students","20 dollars","has lost money.","3.0",1,1,1,0,1,1,1,0.857142857142857
"bArB5qhI33ayqzPdBGfvyVkjoA","XtClsJspMTdNEi1tNhwFIm9Eme",124196,11,FALSE,116190,"5 cents","100 minutes","47 days","4 days","30 students","10 dollars","has lost money.","3.0",1,0,1,1,0,0,1,0.571428571428571
"MEb7oXeDnmtQ0bC3VQKEpwBH12","9NAozSzIlnTayeZyZgRhswlCbv",1683538,698,FALSE,81326,"10 cents","500 minutes","12 days","3 days","30 students","0 dollars","has broken even in the stock market.","2.0",0,0,0,0,0,0,0,0
"e93AKbQfQkjIawUmpnrHDyMCEn","r0TGG1ZeRumnSXFJlaV9vR7MW6",4410040,1122,FALSE,105222,"10 cents","100 minutes","12 days","4 days","15 students","20 dollars","is ahead of where he began.","2.0",0,0,0,1,0,1,0,0.285714285714286
"jD9DLaZo1jwq1HQt3MjwiFBWPC","f1zw8EDQKr0B2RlgBrCHUD06aA",4395185,1316,FALSE,93993,"10 cents","100 minutes","24 days","9 days","29 students","10 dollars","is ahead of where he began.","2.0",0,0,0,0,1,0,0,0.142857142857143
"ta2uwIm5tNBrAjeo5kjrWFX4rg","gwi1uKFa5uP0lnIovraWhhZ9ws",816743,372,FALSE,107598,"10 cents","500 minutes","47 days","9 days","1 student","10 dollars","is ahead of where he began.","3.0",0,0,1,0,0,0,0,0.142857142857143
"C6FdaOsLL8vp2sdEAFgmzZ0hf3","SzS7arHMhlzKZx0dpCAQb5EaO9",3408143,888,FALSE,124754,"10 cents","100 minutes","24 days","9 days","15 students","30 dollars","has lost money.","2.0",0,0,0,0,0,0,1,0.142857142857143
"tbCTQoAafrGj5o6gPjlOQQ6qwi","pwlPELCrjkCJEZrgVTkfFDQT0T",705583,83,FALSE,164348,"10 cents","100 minutes","24 days","4 days","30 students","30 dollars","has broken even in the stock market.","3.0",0,0,0,1,0,0,0,0.142857142857143
"qy2ies2MnUrMAg3lka97bXkkxI","mculQR8IUlq2JRACpF34aZtwYL",4443327,1258,FALSE,106822,"5 cents","5 minutes","47 days","4 days","29 students","30 dollars","has broken even in the stock market.","3.0",1,1,1,1,1,0,0,0.714285714285714
"biu5BgZV2AePGJMpaEXIG7u0N3","MxUO7NYXSHEzSTEPowvnyo0Gds",7543669,1384,FALSE,210263,"10 cents","100 minutes","47 days","4 days","30 students","20 dollars","has lost money.","3.0",0,0,1,1,0,1,1,0.571428571428571
"Itq6YDWXogHpqw9eUguLicnSnw","ifEhbrqrmUNVEo1tB64Wf7mgVa",699508,40,FALSE,266201,"5 cents","5 minutes","47 days","4 days","29 students","10 dollars","has lost money.","2.0",1,1,1,1,1,0,1,0.857142857142857
"2bka8DkhxCpWogLHxC1m5mlG7F","uxi1XdrxsOPl59DacHUosq9qLp",1154870,983,FALSE,130042,"10 cents","100 minutes","47 days","4 days","29 students","20 dollars","has broken even in the stock market.","2.0",0,0,1,1,1,1,0,0.571428571428571
"haM8gzenfiOZvco8ocxKJo9hW8","xOqsGJM9dsJBiQmYq3CX0apP3d",2088704,602,FALSE,81707,"10 cents","100 minutes","12 days","4 days","30 students","30 dollars","is ahead of where he began.","3.0",0,0,0,1,0,0,0,0.142857142857143
"Ev2q5ZLI9arbNnB0IydGIw1Ms4","fLGVVYnLaslcLD1uJBoQg3rLBE",2732871,929,FALSE,116319,"10 cents","100 minutes","24 days","9 days","15 students","10 dollars","is ahead of where he began.","2.0",0,0,0,0,0,0,0,0
"8M8VKFcBeQZ2iUhV3RNIMF1N8Q","Eu6zPcb9jv0kZ1zXSzYnyIfInM",6972309,1316,FALSE,141900,"5 cents","5 minutes","47 days","12 days","29 students","0 dollars","has lost money.","2.0",1,1,1,0,1,0,1,0.714285714285714
"InuVSSgb9zkRgNy4sBB990gX9a","gav3oBa6HBQDe2QUKqIRRL3Uzx",4713793,1247,FALSE,273016,"5 cents","100 minutes","12 days","4 days","30 students","10 dollars","has lost money.","3.0",1,0,0,1,0,0,1,0.428571428571429
"dYGsqbBUw2jxZFU5A1H7OG25F1","C9fu6ZL6YnGCdCQllG6YnrMjpF",9753704,1178,FALSE,153764,"10 cents","100 minutes","12 days","3 days","30 students","0 dollars","is ahead of where he began.","2.0",0,0,0,0,0,0,0,0
"E3zMBre7EWQqIFWrLWlBW7xF35","8dl4eHPAHF9qFgZ1NN8pxplDPY",2094826,263,FALSE,149428,"10 cents","5 minutes","24 days","9 days","30 students","20 dollars","is ahead of where he began.","3.0",0,1,0,0,0,1,0,0.285714285714286
"ZT0jyke8Yvldqb506vgclgoazI","gQ71eSoOo6Ah16HDelPatWOwiG",887957,133,FALSE,105999,"5 cents","5 minutes","47 days","4 days","29 students","20 dollars","has lost money.","3.0",1,1,1,1,1,1,1,1
"MHzEVEOUqQdyi9lBwTBhVZB0yz","dFfUA2D0zXIpJWKvKAXMa2MV4K",3244010,718,FALSE,135959,"10 cents","5 minutes","12 days","9 days","1 student","10 dollars","has lost money.","3.0",0,1,0,0,0,0,1,0.285714285714286
"CZ6NQEOfRqsY44RJ2lktZVRGRA","yi4vroFvczRyyTDshQZzBZkGeH",272540,37,FALSE,88195,"10 cents","5 minutes","24 days","3 days","1 student","10 dollars","is ahead of where he began.","3.0",0,1,0,0,0,0,0,0.142857142857143
"o9cl9d8I9GR8WwsVdnJfEPnqyR","JSmtZPSRKwaYA3VSSe0dkN8U6f",2939545,1250,FALSE,21396,"10 cents","20 minutes","24 days","9 days","1 student","0 dollars","is ahead of where he began.","2.0",0,0,0,0,0,0,0,0
"TmDcNAe6FRG5OYjfe8OcTpBEk5","ip0JlXiSn9k9G2TnglevTKtTDT",5711112,794,FALSE,169369,"5 cents","5 minutes","47 days","4 days","29 students","20 dollars","has lost money.","3.0",1,1,1,1,1,1,1,1
"wgxtKbDhWVjtCDxLrkIFfBb763","SplEYzOeVyHRwvW86a6DC3JqEy",1403959,149,FALSE,115114,"5 cents","100 minutes","47 days","4 days","29 students","20 dollars","has lost money.","3.0",1,0,1,1,1,1,1,0.857142857142857
"Gs5GNIfI1EsQ3Ful5CBfylBy21","y6arfa2UxXISAjMLxQhFNIqc8C",2684445,270,FALSE,123418,"10 cents","100 minutes","24 days","9 days","30 students","20 dollars","has lost money.","3.0",0,0,0,0,0,1,1,0.285714285714286
"N5lNa4Sc3baOKPmS2V3PK3Wbf2","5ZMtyG0MTifonXeP83omGmbZxP",2759088,1031,FALSE,150170,"10 cents","500 minutes","24 days","3 days","30 students","0 dollars","is ahead of where he began.","2.0",0,0,0,0,0,0,0,0
"2TBHnZOJUYj0MYZrQRly55DXIe","FnXNJBhxBqrUUwhvzdcOISzDMd",4481842,1208,FALSE,114775,"5 cents","100 minutes","47 days","9 days","15 students","10 dollars","is ahead of where he began.","3.0",1,0,1,0,0,0,0,0.285714285714286
"4dlMkaMkKa009NZWAw1iqBcwPi","gYP0jhFCWEXP0ZjkDfhbGvpP8p",20201121,962,FALSE,61114,"10 cents","20 minutes","24 days","9 days","15 students","30 dollars","is ahead of where he began.","2.0",0,0,0,0,0,0,0,0
"HSoSwwbH35lqpoIXceM6dQWjth","gchtcxT3Y6Z9Elqc8S8pX46WEj",3442522,568,FALSE,186095,"10 cents","5 minutes","12 days","3 days","30 students","20 dollars","is ahead of where he began.","3.0",0,1,0,0,0,1,0,0.285714285714286
"3y3YlXMmKNewtENV4M3R0mpOWb","uhrq8s6KBRDC4bjbyKcKBvqCfj",409593,26,FALSE,208841,"5 cents","5 minutes","47 days","4 days","29 students","20 dollars","has lost money.","2.0",1,1,1,1,1,1,1,1
"0cxe8fZLamHcc6kdd4QgXwISRo","xgRvBq6DowZ5suFssc0zjulHVw",2024771,1062,FALSE,177281,"10 cents","5 minutes","47 days","4 days","30 students","0 dollars","has lost money.","2.0",0,1,1,1,0,0,1,0.571428571428571
"sbHdu8GGTMOpO46g343rinHq9e","Yuymk052ketbug7RWOBlrlxZCR",4192152,1316,FALSE,29050,"5 cents","5 minutes","47 days","12 days","1 student","10 dollars","it cannot be determined.","2.0",1,1,1,0,0,0,0,0.428571428571429
"G5ZBpCO4zXZko6cqwrVDNbgyix","6c5pPqKHgHpEbMwUvUzX7S8n0P",3444524,1318,FALSE,69624,"5 cents","20 minutes","24 days","9 days","30 students","10 dollars","has broken even in the stock market.","3.0",1,0,0,0,0,0,0,0.142857142857143
"7nlmw3BdK1kwluT1CwmeYU4H3t","3Ws72JzQDpeL7aca4aLpGJYW6U",1506921,107,TRUE,281006,"5 cents","100 minutes","24 days","4 days","30 students","20 dollars","has lost money.","2.0",1,0,0,1,0,1,1,0.571428571428571
"NZN7BcYRtWqW3CM7xNuzZODHlk","gQB4z0c4GcKMyWCqoeT3OkDbY5",4110159,701,FALSE,89699,"10 cents","100 minutes","24 days","12 days","1 student","0 dollars","is ahead of where he began.","3.0",0,0,0,0,0,0,0,0
"v0xHEZJAnH2hBk7KYt5bJ1pphi","VOAtYbTmZlnKDgOVm2PkI5RahV",3455507,977,FALSE,97534,"10 cents","5 minutes","47 days","12 days","30 students","20 dollars","is ahead of where he began.","3.0",0,1,1,0,0,1,0,0.428571428571429
"pdNlWr7CTQH6apW74umDCdw3QH","IGqVvD0WJFumEtCL7RxFVWXpCx",1260507,115,FALSE,218699,"5 cents","5 minutes","47 days","4 days","29 students","20 dollars","has lost money.","3.0",1,1,1,1,1,1,1,1
"1qqyj3uwoGDwVUhFSx8uq9XZ2k","qTJTU6gD2FrZilbvUUlYY1MzBZ",5663266,740,FALSE,246219,"5 cents","5 minutes","47 days","4 days","29 students","0 dollars","has lost money.","2.0",1,1,1,1,1,0,1,0.857142857142857
"bdQFUzfoOeMyBEsjMxPAOHZnTY","XF0V7cturAS9F8mNdu3yzhN2oM",3334952,688,FALSE,67005,"5 cents","5 minutes","47 days","4 days","29 students","20 dollars","has lost money.","2.0",1,1,1,1,1,1,1,1
"gtPUi7sqEEoHOD7DLj5gzQtsgx","YFRGdzpKbz8pHYylmbZj99Wl6Y",4411196,1248,FALSE,126765,"10 cents","100 minutes","24 days","12 days","30 students","10 dollars","is ahead of where he began.","2.0",0,0,0,0,0,0,0,0
"PCJOjPEaFjLMSe7X9TUJRlYxCO","Q4c3Ro9t0pH3N52IFYg4rAlJy3",5096719,1309,FALSE,82102,"5 cents","5 minutes","47 days","4 days","29 students","20 dollars","has lost money.","2.0",1,1,1,1,1,1,1,1
"IeeHxA8B20Qf7dqBptd23gQsws","BbavLZZuyTjAlJ3irPLXLzxY2S",2863287,929,FALSE,148217,"10 cents","100 minutes","24 days","9 days","30 students","20 dollars","is ahead of where he began.","3.0",0,0,0,0,0,1,0,0.142857142857143
"G0APNAVl50xWcSR7tOqyClaPyf","tDIJczWs5A7dVr8ZfcMvamgv8R",3225054,1087,FALSE,221445,"5 cents","5 minutes","47 days","4 days","29 students","20 dollars","has lost money.","3.0",1,1,1,1,1,1,1,1
"9BIZx07jE4Ef90AedDSlXVBssn","OaXvKNf7npnHMWemsmQPyaw6RU",4907388,1242,FALSE,120430,"10 cents","500 minutes","24 days","12 days","15 students","10 dollars","has broken even in the stock market.","2.0",0,0,0,0,0,0,0,0
"61lVwkrbPKX7s3Sky5R1eGbANB","CAau7OdzNgY276xYwj2HwQjYnx",1477007,244,FALSE,124337,"5 cents","100 minutes","47 days","4 days","29 students","0 dollars","has lost money.","3.0",1,0,1,1,1,0,1,0.714285714285714
"b9CoBZdE1dRpzYftOrE2yXFZxW","M0Dqk0rDjDcoYlYJ3Kw1lmOkiK",3257665,307,FALSE,161945,"5 cents","5 minutes","47 days","4 days","29 students","20 dollars","has lost money.","3.0",1,1,1,1,1,1,1,1
"fKyu5qyHKrGbQNZ5V22Ujidtu2","hiJoHzKLYjGY0JOiARP5m6lbVg",4225971,565,FALSE,181235,"10 cents","20 minutes","47 days","4 days","30 students","10 dollars","is ahead of where he began.","2.0",0,0,1,1,0,0,0,0.285714285714286
"kjTfRJQho7ynOHWmgLuFGqcZAa","IOpQPKeWfLgMXsQrfjwfYZ5tc6",5308604,1296,FALSE,145527,"10 cents","100 minutes","47 days","4 days","29 students","30 dollars","has lost money.","2.0",0,0,1,1,1,0,1,0.571428571428571
"HzkqNoBV9xN7djmp8KYHcQGVQT","1Sp5zDi3qg4ZGnrcSqpE2aNB9b",580424,592,FALSE,135173,"5 cents","5 minutes","47 days","4 days","15 students","20 dollars","has lost money.","3.0",1,1,1,1,0,1,1,0.857142857142857
"FVXXyUR8N57I32gsI0a7uQIcQ7","Qo95KXpFeDgJOX6oz5QnQ5Xf35",989619,78,FALSE,66934,"5 cents","20 minutes","47 days","4 days","29 students","10 dollars","has lost money.","2.0",1,0,1,1,1,0,1,0.714285714285714
"FuMnwfdgQxu7LrKtZgvslbjX9q","FsRAkyh2QmFxSKLGPJQSEf5Fkw",4457898,1262,FALSE,157473,"10 cents","20 minutes","12 days","9 days","1 student","0 dollars","has lost money.","3.0",0,0,0,0,0,0,1,0.142857142857143
"M3QkqwsGG89cfZHwg8LJX8Bq8F","MGKIYt4eIYkJpObmAND5CF3F2P",2695765,244,FALSE,192279,"5 cents","5 minutes","47 days","4 days","29 students","20 dollars","it cannot be determined.","2.0",1,1,1,1,1,1,0,0.857142857142857
"oeHqGz00MABds0ueuvAhHv2B7f","WElEQnWexhxe01Pcg5uStXZHpg",121352071,1291,FALSE,113580,"5 cents","5 minutes","47 days","4 days","29 students","20 dollars","has lost money.","2.0",1,1,1,1,1,1,1,1
"MNyIE31KbTEqCZOUsiD7W0U3Fe","VCCySxh2dWTl7lzcapNNUER6eH",1255448,55,FALSE,119469,"1 cent","500 minutes","24 days","12 days","30 students","30 dollars","has lost money.","2.0",0,0,0,0,0,0,1,0.142857142857143
"F1jX5a1fyhOmMSGGJ09OiO1Fjy","CAYe2jSag9ihrsM3ohgAjMimmI",2051819,179,FALSE,269434,"10 cents","5 minutes","12 days","4 days","29 students","20 dollars","has lost money.","2.0",0,1,0,1,1,1,1,0.714285714285714
"XyLJWymItQkYtW0DIEV6NehQSR","boTbQhPLtYJwa0MUE3sTJLQuVd",3843753,1132,FALSE,162594,"5 cents","20 minutes","47 days","4 days","30 students","30 dollars","is ahead of where he began.","3.0",1,0,1,1,0,0,0,0.428571428571429
"gAE2vR87PHDrVwMvMSPhZ6AYWV","OtXMagMMs2jN8QtkrIBfz1hqOB",639612,43,FALSE,234353,"10 cents","20 minutes","12 days","9 days","30 students","20 dollars","has lost money.","2.0",0,0,0,0,0,1,1,0.285714285714286
"44xwQio3fW3tYg3htRNjpHY5VQ","CEzDa8gx1mNJmyhsUKB4QZAook",10960702,991,FALSE,273538,"10 cents","5 minutes","47 days","9 days","29 students","10 dollars","has lost money.","2.0",0,1,1,0,1,0,1,0.571428571428571
"p5bY6MRaajBlnoMdRAvyO5gMIh","FlM4FSUMkEHPKmT4SX01bQ7Xr5",3502385,663,FALSE,89173,"10 cents","20 minutes","47 days","4 days","30 students","10 dollars","is ahead of where he began.","2.0",0,0,1,1,0,0,0,0.285714285714286
"KUD1kf6hnb3NShner2z1iesdGV","v0Jaq1J5Utn3cYRbPzF62YtBu4",4916914,1277,FALSE,159999,"10 cents","5 minutes","12 days","9 days","29 students","10 dollars","has lost money.","2.0",0,1,0,0,1,0,1,0.428571428571429
"la8x8AdnYUHaEan01UUEsEl0S7","Dd6CRALvZox8EUK5YId54RXGxX",3933410,1104,FALSE,258009,"10 cents","20 minutes","24 days","3 days","30 students","10 dollars","is ahead of where he began.","2.0",0,0,0,0,0,0,0,0
"CftPJFR3yijEMNwpuvLEHE8vV1","vZkqmFf0VCMU02BsS1m8sDjvr4",3943389,1198,FALSE,98688,"5 cents","500 minutes","36 days","9 days","1 student","10 dollars","has broken even in the stock market.","3.0",1,0,0,0,0,0,0,0.142857142857143
"a19rHSdiFVGUooGIpt4JTlm8rU","E25AjyyKxoktoEdibQFPF6E1rz",264274414,163,TRUE,281001,"5 cents","20 minutes","12 days","4 days","29 students","0 dollars","has lost money.","3.0",1,0,0,1,1,0,1,0.571428571428571
"1ZpoTHwtV5ZupDMh0yOraaMYTG","nmia5NKdcaSuqrD5c2ApVcJJIK",2188530,213,FALSE,125149,"5 cents","5 minutes","47 days","4 days","29 students","20 dollars","has lost money.","3.0",1,1,1,1,1,1,1,1
"3RiQtKgue68aiSeE0OqmSYWM5a","qfvdLYQenf8oBTTHc7VhZlZIle",5283547,1286,FALSE,131979,"10 cents","5 minutes","24 days","4 days","29 students","20 dollars","has lost money.","3.0",0,1,0,1,1,1,1,0.714285714285714
"nPHlI0wMezMlr4dlNlYp3MfY8E","fEiTjWQ7jfEGhhS73FOiDHRyB5",5818095,1285,FALSE,236306,"5 cents","100 minutes","47 days","4 days","29 students","20 dollars","has lost money.","3.0",1,0,1,1,1,1,1,0.857142857142857
"4OtEHqpMuSDZL9IlNUTQwhtVKj","IljlldU2Pt6Yj9c0qBQjY8gC1m",1606350,222,FALSE,120478,"10 cents","5 minutes","47 days","4 days","30 students","20 dollars","has lost money.","2.0",0,1,1,1,0,1,1,0.714285714285714
"h5ksrMHPeb25v21INaHw13aWWi","2JXgRlYwKeCSyD9HJW8hVvU49P",2830769,1179,FALSE,127929,"10 cents","100 minutes","47 days","4 days","29 students","0 dollars","has lost money.","3.0",0,0,1,1,1,0,1,0.571428571428571
"iryqg2FDANfoL7xlBeKUYDqcKu","kMAtu3vc91n4MrYr0lZj27cNEv",3857584,225,FALSE,237801,"10 cents","100 minutes","12 days","9 days","30 students","20 dollars","is ahead of where he began.","2.0",0,0,0,0,0,1,0,0.142857142857143
"tVl9wKrTWCE8Y7ijKl9xEdIaND","qn3ywZ2DX9iI7gXCN8lst4on5p",4536172,590,TRUE,281001,"10 cents","5 minutes","47 days","4 days","29 students",NA,NA,"2.0",0,1,1,1,1,NA,NA,0.571428571428571
"YJ63tjptRqcgtWZK5dl5LsZEXS","cONWMmBv3AwE6ynqBSfc3XkZcy",6547760,1371,FALSE,212905,"9 cents","5 minutes","47 days","4 days","29 students","10 dollars","is ahead of where he began.","3.0",0,1,1,1,1,0,0,0.571428571428571
"NCKDXsjU7cHV4OrBkf6dv3smaO","AHVzoLSNCqK4SxWjh4Y0wO47LZ",2082318,465,FALSE,128064,"10 cents","100 minutes","24 days","4 days","30 students","20 dollars","has lost money.","3.0",0,0,0,1,0,1,1,0.428571428571429
"38UmwceLQSVBDc9Bq9NbqvPOgS","jhOicHQTnnC9ONtILniEzXbaYk",21088044,716,FALSE,212511,"10 cents","5 minutes","47 days","9 days","29 students","0 dollars","has lost money.","2.0",0,1,1,0,1,0,1,0.571428571428571
"QriUwHaeUaMM3Ux3cw7VRWzQiC","ZtUuTYRxBhd2MarmT3LfgfrPwi",2937851,320,TRUE,281003,"5 cents","5 minutes","47 days","4 days","29 students","20 dollars","has broken even in the stock market.","2.0",1,1,1,1,1,1,0,0.857142857142857
"JSDE68T8aypcDZUKRyPMs9hgmo","OlIauVEMOom9i0By7dazbTgyzH",1521537,632,FALSE,162758,"10 cents","100 minutes","47 days","4 days","29 students","20 dollars","has lost money.","2.0",0,0,1,1,1,1,1,0.714285714285714
"SaQlC9hE9OsuJq9ZSf2sTFXwUo","ZoGUMpREIM10KftnKX394qR68r",2231269,263,FALSE,122290,"5 cents","5 minutes","47 days","4 days","29 students","20 dollars","has lost money.","3.0",1,1,1,1,1,1,1,1
"sTAZtqFJCtX8uoGNdvJTzcZ3qt","Kb1WCiE8CAicykh8IVC3yNAyBJ",454166,24,FALSE,149223,"10 cents","5 minutes","47 days","9 days","29 students","10 dollars","it cannot be determined.","2.0",0,1,1,0,1,0,0,0.428571428571429
"WSglRicKJJWdyrWzqLS3yN4nS4","BjGOFDQ3Rn6AlzG1ho97EBPu6j",3699215,582,FALSE,207775,"10 cents","5 minutes","12 days","4 days","30 students","0 dollars","has lost money.","3.0",0,1,0,1,0,0,1,0.428571428571429
"Tjhn6jZbe9ifvP7bbFTUKvmR8d","d2LmNKWIb1IpZIwKG4DEKvrSrP",554990,23,FALSE,218945,"10 cents","5 minutes","24 days","4 days","30 students","0 dollars","has lost money.","2.0",0,1,0,1,0,0,1,0.428571428571429
"RfOzfLl5wItGscTg2HtbDw8R2B","Vty3mOylEwTv5j92MQSJKHjASQ",1920756,193,TRUE,281008,"5 cents","5 minutes","47 days","4 days","29 students","20 dollars",NA,"2.0",1,1,1,1,1,1,NA,0.857142857142857
"oDPrb4oB7ChKhHdu1LOUMcjzfF","ew6suCezl6ILissqFb4U7vTaCW",4331468,1124,FALSE,117461,"10 cents","5 minutes","47 days","4 days","29 students","10 dollars","has lost money.","3.0",0,1,1,1,1,0,1,0.714285714285714
"aD0IShYXczfagjfK4sx7mKMNTJ","zZl66FBZRdRWNDZRRiLn1H8t8W",848934,53,FALSE,190726,"5 cents","5 minutes","47 days","4 days","29 students","20 dollars","has lost money.","3.0",1,1,1,1,1,1,1,1
"lTYUlbJy1cQafsVm9YcaiXA9XD","tBqGmsarfsGeNTFExvihYkzcCy",5278327,1319,FALSE,143171,"5 cents","5 minutes","47 days","4 days","29 students","20 dollars","has lost money.","2.0",1,1,1,1,1,1,1,1
"sIu88gQdGwPerVLw9BibV8l8i7","IBkj24CGTbA025imxq8yZNdfIK",504480,28,FALSE,158442,"10 cents","5 minutes","12 days","4 days","30 students","20 dollars","has broken even in the stock market.","2.0",0,1,0,1,0,1,0,0.428571428571429
"mhd9G7AKYkzOqfvmCO3sndg292","Nm8C0DsrRsyxQtTd9dlwDi9qnP",401771,77,FALSE,60342,"5 cents","5 minutes","47 days","4 days","29 students","20 dollars","has lost money.","2.0",1,1,1,1,1,1,1,1
"n8PDqL1IFVXn1WZ6w0X41ZX163","96wz66NonMBQ54ZbEzSqUTf4UF",3280463,409,FALSE,97972,"10 cents","100 minutes","12 days","9 days","30 students","10 dollars","is ahead of where he began.","3.0",0,0,0,0,0,0,0,0
"CC2biVSNgQFMIbtAYx6A2NqJAo","MojEPTEutYihMWiHqOtOcQYq8n",1393695,64,FALSE,146895,"5 cents","5 minutes","24 days","4 days","29 students","30 dollars","has lost money.","3.0",1,1,0,1,1,0,1,0.714285714285714
"85NNhQePhWcSB5Ef9IFwrwGzvx","A84i9wwV5F7sshxxEoZqL4VD9a",2444444,1124,FALSE,76508,"10 cents","20 minutes","12 days","9 days","29 students","10 dollars","is ahead of where he began.","2.0",0,0,0,0,1,0,0,0.142857142857143
"W59mVhF5kGd45pUCOIzlEBA0k6","W2cpyQo2l4Lyu6QbxnV6Avhd8p",3292492,876,FALSE,259979,"10 cents","5 minutes","12 days","4 days","15 students","0 dollars","it cannot be determined.","2.0",0,1,0,1,0,0,0,0.285714285714286
"DCe2tkT5AzEOIPkCCBL1XSUl2o","mFyRf8ynM6MfSNA0RIkF7xwg34",3292453,900,FALSE,137225,"5 cents","20 minutes","36 days","9 days","29 students","0 dollars","is ahead of where he began.","2.0",1,0,0,0,1,0,0,0.285714285714286
"Np9xBdnXrqDKe1Mr2PbhL3eUe4","qbC9vrXvQyPgnFoFAThk9G65Ta",2397635,1077,FALSE,85306,"5 cents","5 minutes","47 days","4 days","29 students","10 dollars","has broken even in the stock market.","2.0",1,1,1,1,1,0,0,0.714285714285714
"WcEJzYU0i1JS6CwcuEDO43YjmG","R87PrO8zR1kUpX2DgQ08f2uVJs",667390,19,FALSE,163785,"10 cents","100 minutes","24 days","4 days","30 students","20 dollars","is ahead of where he began.","3.0",0,0,0,1,0,1,0,0.285714285714286
"SaCxndCwwj1N4FnXUGloAFFobG","lMchLhGJH7uqUUKj8nNy2BWxZI",1691252,226,FALSE,80682,"10 cents","100 minutes","24 days","9 days","15 students","0 dollars","is ahead of where he began.","2.0",0,0,0,0,0,0,0,0
"xs5M9JXx5a1mSn9a7En1uZJIid","8YjhhzEumRNrLDamlBV5NgPg2b",5621941,1319,FALSE,152707,"5 cents","5 minutes","47 days","4 days","30 students","10 dollars","has lost money.","3.0",1,1,1,1,0,0,1,0.714285714285714
"py7jbxE4VPFG6MqqZSDhfuGTDs","iAjgDJyknx6FECz6BN4vSoWk5l",507050,29,FALSE,132989,"9 cents","20 minutes","12 days","9 days","30 students","20 dollars","is ahead of where he began.","3.0",0,0,0,0,0,1,0,0.142857142857143
"XYoAnrXUalcnsUsBaTB4h3CRRF","Q8CauJhPdz7CWELyw7BZqzw9MC",3942318,659,TRUE,281002,"10 cents","5 minutes","24 days","3 days","29 students","20 dollars","is ahead of where he began.","2.0",0,1,0,0,1,1,0,0.428571428571429
"7Lo50E1KVghqWLVlE2E9UJwEs3","D30k2rrEimAfytQeP6qh1RWsWr",296681,11,TRUE,281012,"10 cents","20 minutes","12 days","4 days","1 student","10 dollars",NA,"3.0",0,0,0,1,0,0,NA,0.142857142857143
"xZW1wy9omocnP9BGw5v4I2ogM8","YNPokR6etVGCpVOyxzAE966cFP",3947873,1146,FALSE,113712,"10 cents","5 minutes","47 days","3 days","30 students","20 dollars","has lost money.","2.0",0,1,1,0,0,1,1,0.571428571428571
"ymgenUEBtOds3Drr2Ca6mdi0RU","9vMcwaJ1au7SJ8Diicyuq88mHn",2134911,1083,FALSE,106787,"5 cents","100 minutes","12 days","4 days","30 students","10 dollars","has broken even in the stock market.","3.0",1,0,0,1,0,0,0,0.285714285714286
"wOISDZ8vBL1ppIeW2045LrerkE","fURfEbQhpuBWm5QHCyIl0gxaoC",1807420,473,FALSE,78116,"10 cents","500 minutes","24 days","3 days","15 students","10 dollars","is ahead of where he began.","3.0",0,0,0,0,0,0,0,0
"eCKfWPXWkRiVuq2kkuIbx1yRGu","7oeGupasggg4JbOgD1VsQa7Rav",175332567,921,FALSE,213130,"10 cents","5 minutes","47 days","4 days","29 students","10 dollars","has lost money.","2.0",0,1,1,1,1,0,1,0.714285714285714
"a4Q52JjaFUDKIfJLEVZIhEE7kN","0r3D82bhnhrXmGuWWd80BtqU6W",5128035,1319,FALSE,134981,"10 cents","5 minutes","47 days","9 days","30 students","30 dollars","is ahead of where he began.","3.0",0,1,1,0,0,0,0,0.285714285714286
"ltoSq8KHmp8mwGFWsxU8IWO6tD","0MEIspcR0EPvJBByReahvWlLxa",1824273,1048,FALSE,160409,"10 cents","20 minutes","24 days","4 days","30 students","20 dollars","it cannot be determined.","3.0",0,0,0,1,0,1,0,0.285714285714286
"YJK8dIrX6UyhA3Si9oOcCZjAOY","wLspL8wSnK1Bk4dCnkqWn23vDM",5082177,1321,FALSE,100683,"5 cents","5 minutes","47 days","4 days","29 students","20 dollars","has lost money.","2.0",1,1,1,1,1,1,1,1
"ShOqtka9hBXBcV86RDxKNKbUvv","lPgGbZYhQIgrk087oLJ80bsES6",2682450,888,FALSE,74696,"10 cents","100 minutes","24 days","4 days","29 students","10 dollars","has lost money.","2.0",0,0,0,1,1,0,1,0.428571428571429
"B0Ql7N8xcM4tYXiFxu1XuUpbgP","zTzWlIqsaixmzgOW3qRaim2aIo",1967419,160,FALSE,179571,"10 cents","100 minutes","12 days","3 days","15 students","20 dollars","it cannot be determined.","3.0",0,0,0,0,0,1,0,0.142857142857143
"kf9NAQaqzk77HcPbq0DI2ga0AG","T6e9fz5wWddjqonHGzhfrRaan3",387031,24,FALSE,188562,"1 cent","5 minutes","47 days","9 days","30 students","10 dollars","is ahead of where he began.","3.0",0,1,1,0,0,0,0,0.285714285714286
"ej51TZSS31SzLdNOEOsvRfqW94","SkjiokcCTXKRm0Iusa5pQAY2W0",2615195,220,FALSE,80072,"10 cents","20 minutes","12 days","9 days","30 students","10 dollars","has broken even in the stock market.","3.0",0,0,0,0,0,0,0,0
"sfSsH6WXHt4x9DkL6MOfvTpgni","LQFDz2avuDpzFtEeDrUSoyXwjL",1057360,422,FALSE,122359,"10 cents","5 minutes","24 days","9 days","29 students","20 dollars","is ahead of where he began.","2.0",0,1,0,0,1,1,0,0.428571428571429
"Mw8OshkcRay9bkaPYocdIKTc6S","U3DJ3Hd3JMsqXmi9J1npivvsrt",1328680,460,FALSE,136004,"5 cents","5 minutes","47 days","4 days","29 students","10 dollars","has broken even in the stock market.","3.0",1,1,1,1,1,0,0,0.714285714285714
"tQ5OKZAAc3cxuXpc6pc61fNUez","x1aIQYsX4zxNmxCrWr9XcsZ8CQ",2773102,672,FALSE,164646,"5 cents","5 minutes","47 days","4 days","29 students","30 dollars","has lost money.","3.0",1,1,1,1,1,0,1,0.857142857142857
"2HP5i426Yn85eYrxkfzNiY2Hnh","nLt4rTCoNZZyMvbMidnvaiSgGx",2274379,181,FALSE,172000,"5 cents","100 minutes","47 days","4 days","30 students","10 dollars","has lost money.","2.0",1,0,1,1,0,0,1,0.571428571428571
"kYrqtLvACktr7uDAUd4x7Qg9X5","RYEBwRXBueZ9yzy8EB0EJZKUw1",5440490,1323,FALSE,162513,"10 cents","5 minutes","12 days","9 days","30 students","0 dollars","has broken even in the stock market.","3.0",0,1,0,0,0,0,0,0.142857142857143
"mAJ6Q8hXkk3N36SATgPIaTluPr","OZ3Ft6EfLHjGMyy7dxsDTaEtYT",1265076,470,FALSE,9173,"10 cents","20 minutes","24 days","9 days","30 students","0 dollars","has broken even in the stock market.","3.0",0,0,0,0,0,0,0,0
"lQXvpDsk81UCBfymYedDgwuBk4","I25VViAcsGESNWjXG35JKBRZl8",2937250,330,FALSE,187372,"5 cents","5 minutes","47 days","4 days","29 students","10 dollars","is ahead of where he began.","3.0",1,1,1,1,1,0,0,0.714285714285714
"3QLtxVOUyNYm5U3Keh4K9HgkQT","kASBZNTBNqiwI9f7HFrQ3e9xcD",3662966,351,FALSE,277838,"5 cents","100 minutes","47 days","4 days","30 students","10 dollars","is ahead of where he began.","3.0",1,0,1,1,0,0,0,0.428571428571429
"QAcxnX5whLezD6eIXggzl4ullf","gLi3yZKn98si2YTkxPU3r0QsaO",3454038,1180,FALSE,102152,"10 cents","20 minutes","24 days","9 days","29 students","0 dollars","has broken even in the stock market.","2.0",0,0,0,0,1,0,0,0.142857142857143
"oYAkY64ZPxVP8jZXPLzoWR1TIF","SfqBDAIQ3HEs3eADgQvCVZvKn9",502899,588,FALSE,96860,"10 cents","5 minutes","24 days","4 days","29 students","20 dollars","is ahead of where he began.","3.0",0,1,0,1,1,1,0,0.571428571428571
"i5UFDkXnaRVysYE6L1vvl2d9bc","NGezATtrOcBeAmtPtCPvPw05jt",7646085,1321,FALSE,151276,"5 cents","5 minutes","47 days","4 days","29 students","20 dollars","has lost money.","2.0",1,1,1,1,1,1,1,1
"iaPzG0A5rMoHOvJtyXEIWXHKDL","so54lDZcOy2uslGemorHUC5JMK",5101247,1134,FALSE,176485,"10 cents","5 minutes","47 days","4 days","29 students","30 dollars","has lost money.","3.0",0,1,1,1,1,0,1,0.714285714285714
"WoXID0e60IrzLgZLJTAzWgmSW6","LLry75Eo29WsNj223SdFYPW8hd",3579200,1251,FALSE,153269,"5 cents","20 minutes","47 days","9 days","29 students","20 dollars","has lost money.","3.0",1,0,1,0,1,1,1,0.714285714285714
"bwAULxMY0L3SOhm8qpne9PSsQm","sNYvna977YhnlTsjxZeTPjaIIb",5369942,1225,FALSE,128635,"5 cents","100 minutes","36 days","4 days","30 students","20 dollars","has lost money.","2.0",1,0,0,1,0,1,1,0.571428571428571
"h7IGMblze4pzx90AIOtKmypykJ","jUAwoLEacSsegiUBDAsxHfL6u9",8389748,742,FALSE,145334,"10 cents","100 minutes","12 days","4 days","30 students","10 dollars","has broken even in the stock market.","3.0",0,0,0,1,0,0,0,0.142857142857143
"RG5rAKXpPZmVtoqMNOtz3ueiqJ","6ucegX3cyMBSuDT4zjoQXEKILb",1447102,623,FALSE,174047,"5 cents","100 minutes","36 days","4 days","29 students","0 dollars","has lost money.","2.0",1,0,0,1,1,0,1,0.571428571428571
"WHXNDeR81qN9QnztFhsE8rEyGB","z3mRrpdwqspCFavFAx5nIFz7lK",1734794,399,FALSE,268317,"5 cents","5 minutes","47 days","9 days","29 students","30 dollars","has lost money.","3.0",1,1,1,0,1,0,1,0.714285714285714
"FRfSS395qilOmE8PV7CzzzunT4","OG1E4TFs0iIUfY7IDLJE652nUj",1608916,416,FALSE,245755,"5 cents","500 minutes","24 days","3 days","30 students","30 dollars","has lost money.","2.0",1,0,0,0,0,0,1,0.285714285714286
"MZD1woFNVuMp7ONLMtXW39RH56","Fwo983oJsLXoinAcFQBqgNnKRP",402396,77,FALSE,144432,"10 cents","5 minutes","24 days","3 days","29 students","10 dollars","has broken even in the stock market.","3.0",0,1,0,0,1,0,0,0.285714285714286
"fdhE1rz3Dp82IqkvQoJzNgeKnK","01tEigZcHJ3I6EtIzSpqWbZTAO",2202628,177,FALSE,128281,"10 cents","5 minutes","24 days","4 days","15 students","10 dollars","has lost money.","2.0",0,1,0,1,0,0,1,0.428571428571429
"Yrjye41coTNZrLhSpwCKRX0Xx9","jVVCOTxJaU84QmttcxXsC40GQ4",4686859,293,FALSE,196540,"10 cents","5 minutes","47 days","4 days","29 students","30 dollars","has lost money.","2.0",0,1,1,1,1,0,1,0.714285714285714
"ismtccbpw2J4d0HWHTJoHAvohW","X1ZZDpwGDCvARj5sq8mIriIyc1",1445347,165,FALSE,153568,"5 cents","5 minutes","47 days","9 days","29 students","20 dollars","has lost money.","3.0",1,1,1,0,1,1,1,0.857142857142857
"2fpXdYtjQfN3Qk8xQsh2fxhxut","MPbZok7UGutAFNPAGSo43Zyode",2549120,676,FALSE,126463,"5 cents","5 minutes","47 days","3 days","29 students","0 dollars","has lost money.","3.0",1,1,1,0,1,0,1,0.714285714285714
"fQmMgbOfbpK6PH8CaDh057lGp7","JRuutOMzd2Zm0C1gchrxAz91Do",2854649,1060,FALSE,130736,"10 cents","100 minutes","24 days","9 days","30 students","10 dollars","is ahead of where he began.","3.0",0,0,0,0,0,0,0,0
"4dJPVMak0QqVxygHG63Xpuqvwh","09s3r2wumZGnS24xpl1TY5jIeS",4101046,604,FALSE,160525,"5 cents","100 minutes","24 days","3 days","29 students","20 dollars","has broken even in the stock market.","2.0",1,0,0,0,1,1,0,0.428571428571429
"oyxOR55cQDXeapBsc3fZaDDO3f","0p5KqvyZXcB94x34bShRDayihO",2675520,188,FALSE,198794,"10 cents","100 minutes","24 days","4 days","1 student","0 dollars","has lost money.","2.0",0,0,0,1,0,0,1,0.285714285714286
"p0OTM2UYxRVodD2GSjMf9yFcnz","YrNXDVll2n0sfdiznlvYI9DuJC",7151399,697,FALSE,162277,"10 cents","100 minutes","12 days","4 days","30 students","10 dollars","has lost money.","2.0",0,0,0,1,0,0,1,0.285714285714286
"00hs52Bbsn97IZqlMWL5L34PAd","4tW0rTCeNaC6gDYaoqS8UfLyAm",4651191,1252,TRUE,281002,"5 cents","100 minutes","12 days","9 days","30 students","10 dollars","has lost money.","3.0",1,0,0,0,0,0,1,0.285714285714286
"cecdLfxnB55fgLGIzDEOJiuPx8","M3CH3Zq3T6TvUpKoaU4y28FAmg",3532355,1064,FALSE,213346,"10 cents","100 minutes","47 days","4 days","29 students","20 dollars","has lost money.","3.0",0,0,1,1,1,1,1,0.714285714285714
"PiVOIcvagidsK5l1Jo32CvWCDk","hB0eSMhsFW5FNY7ogjJQ9Qhm8x",3018577,683,FALSE,121051,"10 cents","100 minutes","12 days","9 days","1 student","10 dollars","it cannot be determined.","2.0",0,0,0,0,0,0,0,0
"8Zam9ZRwmYBDh7uymhdQsveTtU","lrEOo2DgFgtPHy4h7ueyLUfjUK",92797,11,FALSE,86171,"10 cents","100 minutes","24 days","4 days","30 students","20 dollars","has broken even in the stock market.","3.0",0,0,0,1,0,1,0,0.285714285714286
"WCd7WuXM5laqFwhC1fq8CDJ3s1","EYHVMWVF3EnbfI9LLuPDF6XjNN",4673662,1319,FALSE,132664,"10 cents","5 minutes","24 days","4 days","30 students","0 dollars","is ahead of where he began.","2.0",0,1,0,1,0,0,0,0.285714285714286
"bmhjSWCElfJkv1iNryr7i8Hq2t","SW7f7zNmdlPUqQfsNfYkgPt3Go",142663,11,FALSE,134331,"10 cents","5 minutes","47 days","9 days","30 students","10 dollars","is ahead of where he began.","3.0",0,1,1,0,0,0,0,0.285714285714286
"BsXe2qxOoxxCWSfGzsns5QCbpN","XWOuMQRiOCL26AfC7SnFaAJenY",5255089,744,FALSE,214105,"5 cents","100 minutes","47 days","4 days","29 students","0 dollars","has lost money.","2.0",1,0,1,1,1,0,1,0.714285714285714
"K2DYK1M7sDrx5DFRGqGNzfbkn0","1WYnmjrt2CECgbM0Bde79ZhJUE",926120,55,FALSE,169439,"5 cents","5 minutes","47 days","4 days","29 students","10 dollars","has lost money.","2.0",1,1,1,1,1,0,1,0.857142857142857
"8O8iQgMPix5Q8zrbV1BgUkyYVl","YcdGwIZQok1BnYlphEcF6uZWro",4067190,1318,FALSE,171645,"5 cents","100 minutes","36 days","4 days","29 students","20 dollars","has lost money.","2.0",1,0,0,1,1,1,1,0.714285714285714
"A0WuBnHZLp76C0fbYcoC3sEmWc","B30zjmi894yNhwJ0p02dcaH7M6",2945933,827,FALSE,271488,"10 cents","100 minutes","36 days","3 days","29 students","10 dollars","has lost money.","2.0",0,0,0,0,1,0,1,0.285714285714286
"I6b92yXgrhcb0WaJZq2JqLZK48","d6sL3kB0QG0MdvUZbNb767cDb8",1897523,640,FALSE,74897,"1 cent","100 minutes","47 days","4 days","29 students","20 dollars","has lost money.","2.0",0,0,1,1,1,1,1,0.714285714285714
"AUwBJrzZaVOulPZV1Qu2YC95SI","cfdYhpDKLDHseeodLzVAcn8ZMq",696606,92,FALSE,123202,"5 cents","500 minutes","47 days","4 days","29 students","20 dollars","has lost money.","3.0",1,0,1,1,1,1,1,0.857142857142857
"Unu0wt7jHTNY17L6gp3Y8VzQqz","OTVmCfah3ZZCmAo3BpDOXvEJ0x",3900596,1234,FALSE,190772,"10 cents","100 minutes","47 days","4 days","29 students","0 dollars","has lost money.","3.0",0,0,1,1,1,0,1,0.571428571428571
"QOPl6S4Wp4Kh4I8SBSWdM2imJr","XJVeg9KjZ7fXN5D7vSe9OUsV9o",1860031,101,TRUE,281009,"10 cents","5 minutes","12 days","3 days","1 student","10 dollars",NA,"2.0",0,1,0,0,0,0,NA,0.142857142857143
"4kpnY5p9uf9CO3TAELrXdgTcjT","Sos5JVDusQ8JsJXekSHxflUYB2",5066183,964,FALSE,94690,"5 cents","5 minutes","47 days","4 days","29 students","10 dollars","has broken even in the stock market.","2.0",1,1,1,1,1,0,0,0.714285714285714
"F8I2mQ6SzJ6hj57OHOlqFXHFtC","WCFqFRgWy0FJpkNsLQnYEZW5EL",3184768,279,FALSE,150187,"5 cents","5 minutes","47 days","4 days","29 students","20 dollars","has lost money.","2.0",1,1,1,1,1,1,1,1
"99XVi5rZJ7zIQOLGqp13z2foOX","tNEalPUciLLlsABEwDGjeyvhBJ",4157286,915,FALSE,149098,"10 cents","100 minutes","47 days","4 days","29 students","20 dollars","has lost money.","2.0",0,0,1,1,1,1,1,0.714285714285714
"JQFPu9m9NnDMDJQvNvR5DXXDc7","5XL0HFhPdMXNu7p6OXBZU1TUU7",1279688,407,FALSE,142159,"5 cents","5 minutes","47 days","4 days","29 students","20 dollars","has lost money.","3.0",1,1,1,1,1,1,1,1
"bvAaKjW3VkCWdyx5bV8NgXUxtz","QceXzs9Lb8AZkavGh5GuLuYtpJ",4677082,670,FALSE,193837,"5 cents","5 minutes","47 days","4 days","29 students","20 dollars","has lost money.","3.0",1,1,1,1,1,1,1,1
"e8YNQAbf9k7kVtvwh9tUSCvbiv","vKjf6K162Ju1JHqYP56gXiTyLZ",4517871,235,FALSE,157098,"10 cents","5 minutes","24 days","9 days","30 students","10 dollars","has lost money.","3.0",0,1,0,0,0,0,1,0.285714285714286
"tJsXAKDRhLQnKWAYp3FKeFoail","zg7NyL9azuktc3c4F3nlCjm06r",2734076,589,FALSE,173028,"5 cents","100 minutes","12 days","3 days","30 students","10 dollars","is ahead of where he began.","3.0",1,0,0,0,0,0,0,0.142857142857143
